Timestamp,Linear_Acceleration_X,Linear_Acceleration_Y,Linear_Acceleration_Z,Orientation_X,Orientation_Y,Orientation_Z,Angular_Velocity_X,Angular_Velocity_Y,Angular_Velocity_Z
2024-05-11 03:18:54.513,2.3957219247377616e-05,-0.006714254208741102,-9.810518100544416,0.00033163280122802127,0.000356657439432614,0.7071066079220616,-0.0,0.0,-0.0
2024-05-11 03:18:54.565,2.8380845835466703e-05,-0.006730356584297495,-9.810449182677168,0.0003305822834290834,0.00035628865087107585,0.7071066380632998,-4.0144083730736544e-05,1.9283025790157873e-05,1.675798086773528e-06
2024-05-11 03:18:54.617,7.165176411594458e-06,-0.006916805876950757,-9.810368995807302,0.0003313403518325053,0.00035806744660865343,0.7071066970412861,7.1753296077593e-05,2.8872175725219936e-05,3.358978030567354e-06
2024-05-11 03:18:54.672,1.4331672856098037e-05,-0.009823716561155585,-9.81054464323653,0.000332556658615895,0.0003609396448598126,0.7071068152349339,0.00011564026432365331,4.683898573124249e-05,6.7227132070507756e-06
2024-05-11 03:18:54.725,1.2812606544457081e-05,-0.010357086611394613,-9.810452814835037,0.000332556658615895,0.0003609396448598126,0.7071068152349339,-0.0,0.0,-0.0
2024-05-11 03:18:54.776,5.8442461958430494e-05,-0.008093882549751541,-9.810431580681342,0.000332556658615895,0.0003609396448598126,0.7071068152349339,-0.0,0.0,-0.0
2024-05-11 03:18:54.829,2.139327031608932e-05,-0.006848336799841908,-9.810446947503095,0.000332556658615895,0.0003609396448598126,0.7071068152349339,-0.0,0.0,-0.0
2024-05-11 03:18:54.882,2.629085943975602e-05,-0.006494389400210828,-9.810447226899853,0.000332556658615895,0.0003609396448598126,0.7071068152349339,-0.0,0.0,-0.0
2024-05-11 03:18:54.933,2.545531326944385e-05,-0.0063960361930852794,-9.810447133767601,0.000332556658615895,0.0003609396448598126,0.7071068152349339,-0.0,0.0,-0.0
2024-05-11 03:18:54.985,2.396863518169948e-05,-0.006377113292693717,-9.810447133767601,0.000332556658615895,0.0003609396448598126,0.7071068152349339,-0.0,0.0,-0.0
2024-05-11 03:18:55.041,2.304882415363473e-05,-0.006380944811791358,-9.810447226899853,0.000332556658615895,0.0003609396448598126,0.7071068152349339,-0.0,0.0,-0.0
2024-05-11 03:18:55.112,2.175058056937831e-05,-0.006399176223394007,-9.810447226899853,0.000332556658615895,0.0003609396448598126,0.7071068152349339,-0.0,0.0,-0.0
2024-05-11 03:18:55.174,1.5431841737574812e-05,-0.0064221838007214255,-9.810448065090132,0.000332556658615895,0.0003609396448598126,0.7071068152349339,-0.0,0.0,-0.0
2024-05-11 03:18:55.227,1.4482279997918883e-05,-0.006441318022196909,-9.810448158222385,0.000332556658615895,0.0003609396448598126,0.7071068152349339,-0.0,0.0,-0.0
2024-05-11 03:18:55.282,1.4971887284913836e-05,-0.006456316043864128,-9.810447506296613,0.000332556658615895,0.0003609396448598126,0.7071068152349339,-0.0,0.0,-0.0
2024-05-11 03:18:55.339,1.5292338624034102e-05,-0.0064741847489969365,-9.810446574974083,0.000332556658615895,0.0003609396448598126,0.7071068152349339,-0.0,0.0,-0.0
2024-05-11 03:18:55.394,1.5939492601455782e-05,-0.006494136515221012,-9.810446574974083,0.000332556658615895,0.0003609396448598126,0.7071068152349339,-0.0,0.0,-0.0
2024-05-11 03:18:55.449,1.6928172059427894e-05,-0.006505233623348139,-9.810446668106337,0.000332556658615895,0.0003609396448598126,0.7071068152349339,-0.0,0.0,-0.0
2024-05-11 03:18:55.504,1.69221229207477e-05,-0.00652017484707393,-9.81044676123859,0.000332556658615895,0.0003609396448598126,0.7071068152349339,-0.0,0.0,-0.0
2024-05-11 03:18:55.560,1.7340544975639774e-05,-0.006537153247885461,-9.81044676123859,0.003112236191469505,0.0031448101314470994,0.7071004858948704,0.15736153378335616,0.00011865737143503476,3.129343637207693e-05
2024-05-11 03:18:55.619,5.309814557858994e-05,0.2282711192299476,-9.846305565758064,0.0012704358509244423,0.001310778885401135,0.7071058713140242,-0.10396875368001755,0.00021979664802615137,-2.3026314227339054e-05
2024-05-11 03:18:55.674,-0.00013846039816512001,-1.0046042641402408,-9.767855333014744,-0.0009158626784784225,-0.0008679442663032433,0.7071063970966873,-0.12346151081286767,0.00021432695582814605,-8.309177468295638e-06
2024-05-11 03:18:55.729,0.0008299726918317048,-0.3165562588202792,-9.759770242731756,0.0012430214542368237,0.0012945031082817545,0.7071073709792498,0.12222576114291761,0.00010092368548525257,9.162598273443935e-05
2024-05-11 03:18:55.784,0.000995912402449422,0.33644083417103854,-9.840615464494203,0.003991637885421372,0.004037337889956531,0.70709499748238,0.15532288048915716,-0.0001645432685721249,-0.00011310977001190644
2024-05-11 03:18:55.842,0.003677769443408732,-1.0184790862794655,-9.893472115912402,0.002101162400524841,0.002144794862148804,0.707104309140854,-0.107000963150278,-5.8355785909362985e-05,5.9095021030515426e-05
2024-05-11 03:18:55.895,-0.001407163744414475,-1.8314360105751673,-9.772781004745669,-0.00099207465714138,-0.0009440966410497731,0.7071072803757106,-0.17485719925632381,0.0001230721532469248,2.0062195570532352e-05
2024-05-11 03:18:55.950,-0.0005767985395571241,-0.3972811901370616,-9.674480470457578,-0.0003419258138557048,-0.00028725717172101557,0.7071082305944136,0.03696722796438585,0.0001891697202003954,2.156882134510881e-05
2024-05-11 03:18:56.009,0.0005383572386197844,1.0106132264097458,-9.789144807265712,0.0018842277212245853,0.0019475073683267764,0.7071057943278781,0.12617395021400873,0.0002433185105209715,9.27626297961371e-06
2024-05-11 03:18:56.064,0.00011365728227189,0.46008209899143593,-9.949912123898493,0.002150010243440494,0.0022184456865090175,0.7071051353814426,0.015180821733650481,0.00014581574328496584,6.972380509266599e-06
2024-05-11 03:18:56.118,0.0020111260550683737,-0.64533943359292,-9.884467344630664,0.00122092855872649,0.0012879483967866909,0.7071069193736674,-0.05259699415727974,-3.9961413887753225e-05,-2.9448274232641383e-05
2024-05-11 03:18:56.173,0.0024031470497885023,-0.6685654169676487,-9.701827825239656,0.001562355158324574,0.0016256888216121623,0.7071041195153304,0.019209788639479742,-0.00010456206755627556,-0.00011855128000091465
2024-05-11 03:18:56.231,0.0019918766915691154,-0.3113000651343695,-9.70733315211349,0.0012907163314066653,0.0013554041398330158,0.7071059300936445,-0.015327947482826274,3.84135395487962e-05,7.004851177701651e-05
2024-05-11 03:18:56.287,-0.001782738860945979,-0.2149375460931893,-9.849283842077966,0.00041123109886598866,0.000483913380202217,0.7071071750460348,-0.04952512211491061,0.0002261502344881309,6.020906067928534e-06
2024-05-11 03:18:56.344,0.00014942777540571467,0.10659357434020164,-9.89959463022712,-0.00016037749307209602,-8.109958013006744e-05,0.7071069783837033,-0.03214851277680141,0.0001865811327667968,-2.0164990496959374e-05
2024-05-11 03:18:56.399,0.001355285295832419,0.6671134909635521,-9.799016546690982,0.0012158193617595777,0.0013006013874562758,0.7071062863474898,0.07800516616576374,0.0001557106002651673,2.769804157366687e-05
2024-05-11 03:18:56.455,0.0013445877059714362,0.6193814243064703,-9.765156267189449,0.0024495630757561016,0.0025358966890896206,0.7071047702863416,0.06983521758751146,4.4192501852021026e-05,0.00010349809934683313
2024-05-11 03:18:56.511,0.0015292423496583501,-0.1911662835632633,-9.821979048735525,0.0024888163039883055,0.002572696807948128,0.7071050823162446,0.002151125318189346,-6.930023925719192e-05,2.56676141146579e-05
2024-05-11 03:18:56.566,0.0026035149076360877,-0.8440633078131557,-9.845509005597831,0.0007562749803923585,0.0008401498994043041,0.7071107103428071,-0.09800779652887767,3.3397227731101924e-07,8.185253596892047e-05
2024-05-11 03:18:56.620,0.00028701435597187105,-0.4427561733587041,-9.768195079473825,-7.781013955515911e-05,9.015202648704191e-06,0.7071115473728239,-0.04709953930621344,8.374309350047405e-05,1.9127183605519682e-05
2024-05-11 03:18:56.675,0.0009612810002163869,0.5492292665776866,-9.753980024295878,0.00040292928829662096,0.0004936773660413218,0.7071117636005501,0.027305681562519793,0.00011078201945086762,2.1836761175205916e-05
2024-05-11 03:18:56.731,0.001244727835678835,0.9560315648488609,-9.834727922853897,0.0007896480132281986,0.0008837171920771934,0.7071110231745447,0.02197006098836281,9.375171525728449e-05,-2.0617464331720107e-05
2024-05-11 03:18:56.785,0.001275002394699436,0.6877551256208575,-9.880093667763493,0.0014154613956693324,0.0015103911119951146,0.707110511464651,0.03542573674739598,2.416743657958976e-05,3.096642916950266e-05
2024-05-11 03:18:56.838,0.0018529758819842642,0.2815380653346038,-9.8296836006326,0.002194367560123051,0.0022860600016999222,0.7071114266270926,0.043970163860973424,-9.134991880678662e-05,0.0001701435041557911
2024-05-11 03:18:56.893,0.0010584709807266441,-0.18629584507915367,-9.764962738367636,0.0017125123100463827,0.0017998927236310296,0.7071149700739121,-0.027379930602270883,-0.00012134299249210713,0.00012159542451911688
2024-05-11 03:18:56.945,0.0020098557979847925,-0.4202642453056979,-9.764865042634199,0.00018310734019621436,0.00027003140555338596,0.707117710722579,-0.08652922151327494,-1.1623470593174064e-05,2.8376176726102462e-05
2024-05-11 03:18:56.998,0.0010715234085780698,0.14401734704628147,-9.805264882679555,-0.00025000053134617486,-0.0001634210509632688,0.7071179254308956,-0.024510028581966634,-9.368730922519686e-06,1.029202946417402e-05
2024-05-11 03:18:57.054,0.0012920524523213795,0.9612370524340406,-9.83948698098414,0.0004375502810678561,0.000524958636848295,0.7071173746232252,0.0389171955038287,2.2815759611561187e-05,-2.1234937104310126e-05
2024-05-11 03:18:57.110,0.0008945997906543385,1.0745065183845979,-9.838502573069528,0.0016324428850312213,0.001719327840623024,0.707115790847704,0.06757861451427383,-1.5786762784859677e-05,1.7702181164645356e-05
2024-05-11 03:18:57.167,0.0012899809531809613,0.4765871976912514,-9.824515505647016,0.001582907623987151,0.0016681292334869435,0.7071163555047545,-0.002849194071366044,-4.6944359891771186e-05,2.5221022877174603e-05
2024-05-11 03:18:57.221,0.001469518916342935,-0.08671007405760346,-9.788913001087902,0.001649351898480829,0.001731729248241486,0.7071181402411931,0.0036782103657433678,-8.024458691764857e-05,0.0001099956268764524
2024-05-11 03:18:57.275,0.0007887486299827211,-0.168244037935095,-9.788690601267646,0.0014927629764302191,0.0015730839626155386,0.7071199002439452,-0.008916198606001288,-5.782317307072497e-05,7.884224024750519e-05
2024-05-11 03:18:57.331,0.0012931360469949714,-0.08727625994841638,-9.80362370611652,0.00022145734846429447,0.000303836561465206,0.7071213043947632,-0.07185775652610205,5.971538246834231e-05,-1.590310761028213e-05
2024-05-11 03:18:57.388,0.0008975724568928636,0.3153432544709302,-9.805818833320625,-0.0004301741864405355,-0.0003441982087411305,0.7071206808284844,-0.036760111619058816,0.0001025091676270406,-3.411647406132819e-05
2024-05-11 03:18:57.444,0.0009590823650913831,1.0395332327893052,-9.81256505433394,0.0013177209342138006,0.001406554211657627,0.7071193853594963,0.09895674650289217,7.886555312690354e-05,8.08888731686088e-07
2024-05-11 03:18:57.497,0.00130163352380213,0.9538481432048088,-9.847337098592712,0.0023991412324914528,0.0024892616026474324,0.707117754419764,0.061210998230158964,3.546629459304208e-05,7.621635708418873e-05
2024-05-11 03:18:57.552,0.001081483497746927,0.009882021808081202,-9.835028553766705,0.0022416022895496105,0.0023316593247736756,0.7071202782396269,-0.008913596866937684,-1.236283403275174e-06,0.00011239010315039949
2024-05-11 03:18:57.606,0.001071765001623266,-0.58466793404141,-9.786324669511469,0.0010750740584163948,0.0011645108263847825,0.7071258901811566,-0.06600655488642951,-1.569081816085932e-05,0.00015429515330930371
2024-05-11 03:18:57.662,0.0016634111381154224,-0.2374103762135569,-9.74768772988387,0.00014520810575125516,0.00023597295073384743,0.7071277643720718,-0.05256362679666039,3.906695440317116e-05,5.398611300501879e-05
2024-05-11 03:18:57.717,0.001663697321978426,0.563918979014393,-9.790292289755394,0.00045816416566348933,0.0005513578955166918,0.707127669421083,0.017772171481253277,6.817462190427572e-05,4.4637670539987935e-06
2024-05-11 03:18:57.775,0.0014012421746170082,0.9880740948563639,-9.864117109151582,0.00030117857601821,0.0003956277334028713,0.7071278233106579,-0.00884493791536781,3.577384709584343e-05,2.7713468153052234e-06
2024-05-11 03:18:57.831,0.0014412753896347877,0.9272902667118552,-9.847683643706269,0.0006680191185071676,0.0007622577959601897,0.7071272793057074,0.020745688421375523,-6.586777744846415e-06,-1.3780550381436068e-05
2024-05-11 03:18:57.886,0.0014506802692628058,0.8249993218807825,-9.798083547780047,0.0017720853459585744,0.0018646923448689685,0.7071261969535877,0.06240936811099419,-4.784792617747881e-05,5.485962900805918e-05
2024-05-11 03:18:57.940,0.0013039074537161807,0.39441743447418404,-9.79066463250304,0.0023593250887698615,0.0024486035342713764,0.7071275182632119,0.03312528528888812,-9.456571196207614e-05,0.00017613701240498832
2024-05-11 03:18:57.996,0.0007762958461705472,-0.26341722027000203,-9.817136357842056,0.000686291653387529,0.0007757172532766198,0.7071316738374166,-0.09463715663069423,7.511737695136391e-06,1.930999041473167e-05
2024-05-11 03:18:58.051,0.0014648590636163136,-0.14864649150430126,-9.793262649833787,-0.0009007864447832724,-0.0008106493132424068,0.7071316232926053,-0.08975858822784238,2.3340265770223585e-05,-5.862551589454507e-07
2024-05-11 03:18:58.108,0.0014982640407239694,0.9117394601938199,-9.777579644083453,0.0002913121333971237,0.0003847498710758091,0.7071316727524866,0.06752865145944695,9.092839661625782e-05,-1.7653766011666914e-05
2024-05-11 03:18:58.164,0.0006782959464559759,1.4344871876213265,-9.832604228087874,0.002286454954312847,0.002382599121243677,0.707127601693858,0.11293911353191377,7.253961498595331e-05,-9.630641493448155e-06
2024-05-11 03:18:58.218,0.001443990288034048,0.5184917377139641,-9.879614502321614,0.001949057122018946,0.002045365196329521,0.7071304825680237,-0.01908156419499341,5.5937527344163095e-06,0.00010321163998054828
2024-05-11 03:18:58.275,0.0010484285055525739,-0.3446266880948459,-9.808036498529965,0.001467978632455628,0.0015635360571997828,0.7071346288618472,-0.02723523709335096,-1.9855489791487132e-05,0.0001650900385258173
2024-05-11 03:18:58.329,0.0012298751029411528,-0.25699364430580673,-9.742058537113493,0.0010051653650106056,0.0011003428149985838,0.7071378240712126,-0.02619147228443686,-9.459321006489843e-06,0.00013142898529557744
2024-05-11 03:18:58.381,0.0019366375330364838,0.19162297939390693,-9.764998221756043,0.0005677082201502626,0.0006639548297438938,0.707139024969152,-0.02471609147596173,3.138576530628242e-05,3.7084742178898064e-05
2024-05-11 03:18:58.436,0.0016739155740482902,0.5493076344582352,-9.84844453421359,0.000230181986314217,0.00032738413358806385,0.7071396255618719,-0.01906634460672733,2.7911836080710515e-05,2.060799035691031e-05
2024-05-11 03:18:58.489,0.0015822997669292607,0.8594445999882421,-9.859710370334584,-8.520112264993829e-05,1.3496728055648014e-05,0.7071391431401539,-0.017798454179355994,4.3134918738377596e-05,-3.156670601607973e-05
2024-05-11 03:18:58.542,0.001299509308077564,1.0580708992559316,-9.798204526576743,0.0009867325784180198,0.0010850672073593713,0.7071382660672814,0.06062747440784519,-1.3048928233636081e-05,-2.491204576723608e-06
2024-05-11 03:18:58.598,0.0014369340078315494,0.9097185426897876,-9.793023765604746,0.0018075501612091528,0.0019058307803487232,0.7071365872469865,0.04643102618462159,-3.6346493473178435e-06,3.2394037046581875e-06
2024-05-11 03:18:58.653,0.0011904984833812772,0.2554587923977306,-9.824180881461851,0.0019260813991257108,0.0020238740020643298,0.7071385912459369,0.006691351022562003,-1.3739655298386512e-05,0.0001320020499811613
2024-05-11 03:18:58.710,0.0005327587959320269,-0.20835031347734295,-9.826789609001699,0.0014387817303935875,0.001535788297271143,0.7071412752826473,-0.02758815446595622,-2.0709672183169814e-05,8.243020025608484e-05
2024-05-11 03:18:58.764,0.0018956757921843996,-0.15493462406875025,-9.783916548844665,9.350479539020802e-07,9.928644648366213e-05,0.7071429567982035,-0.08129891382700791,4.218938744047094e-05,1.168142282451369e-06
2024-05-11 03:18:58.820,0.0015429862691408607,0.436259957147522,-9.760150594853163,-0.00035882742808455184,-0.00025853143291916525,0.7071426229211961,-0.02029623400364472,5.6047574055832784e-05,-1.6559741487629416e-05
2024-05-11 03:18:58.877,0.001240431729656569,1.1855063862532138,-9.818579535235132,0.0016448871094015094,0.0017452222204908776,0.70714107583699,0.11334840767016767,-4.562976265054428e-06,3.166008533747298e-05
2024-05-11 03:18:58.930,0.001651650189837001,0.9414262011295779,-9.88942300494707,0.00319416843000322,0.00329366721543705,0.7071390042918326,0.08761746840759807,-2.725451748368933e-05,0.00019516620149500962
2024-05-11 03:18:58.983,0.00017613854213445007,-0.2769877595115679,-9.850239378994138,0.0015097484424460054,0.001607209490022369,0.707147380076906,-0.09534340507150131,-5.196336439129623e-05,0.00014345594677695904
2024-05-11 03:18:59.038,0.002477388678126639,-0.671452513901444,-9.726756349145832,-0.0007351041197842006,-0.000635951788375702,0.707149003582476,-0.12694027581771353,5.5443155696800224e-05,4.804727411365757e-06
2024-05-11 03:18:59.093,0.0015648314099764725,0.5172136445153543,-9.713010307994182,-0.0003026127789254625,-0.00020131841129002032,0.7071491419135343,0.024526000639801843,5.911273366962473e-05,-6.688442204686634e-06
2024-05-11 03:18:59.150,0.001463456406847811,1.5288572032267997,-9.847807788999567,0.0010145623379410227,0.0011177249409803057,0.7071473101766793,0.0745635486589159,4.829120722753604e-05,-5.541943415310106e-05
2024-05-11 03:18:59.203,0.0012643356821821121,1.1638444411977507,-9.926559863374985,0.0016117710994718825,0.0017175414067289235,0.7071458861650236,0.03385705565003019,7.174875205570495e-05,-1.2871182329819587e-05
2024-05-11 03:18:59.256,0.0010500427278316861,0.34196368191377463,-9.836932456415562,0.0011514947263329795,0.0012560580411160528,0.707148162035096,-0.026071364040758195,-3.249820542599647e-05,7.397039117701065e-05
2024-05-11 03:18:59.310,0.0017071583541522725,0.09917089302771209,-9.713786937852266,0.0017347225211084782,0.0018380583555739555,0.7071493738582676,0.032957690194035674,-3.633849806961462e-05,0.0001407716133421377
2024-05-11 03:18:59.366,0.0010146180416200762,0.10165194206941029,-9.7620646489176,0.001471951744517041,0.001573804916298155,0.7071519573610293,-0.014906547370950795,-4.075290917148474e-05,0.0001102667517351448
2024-05-11 03:18:59.418,0.0018645994056197747,0.02757860798713844,-9.855542888275638,0.00023387745373268994,0.00033719279377339607,0.7071538673519074,-0.06999476619255188,4.600076560431491e-05,1.3488785626774987e-05
2024-05-11 03:18:59.473,0.0014499470346690632,0.39429789231525036,-9.8497585371717,-0.0003879554997709495,-0.0002829768075791582,0.7071539943714046,-0.03512913561519395,4.938732391034384e-05,5.887726598637878e-06
2024-05-11 03:18:59.526,0.001597235874747597,1.103859991373625,-9.779965413009528,0.000291028997063823,0.0003984458822868615,0.7071532150073055,0.03847813510147425,6.637021365706665e-05,-4.1007815111581126e-05
2024-05-11 03:18:59.579,0.0011489465742874146,1.2565136290321173,-9.786787443676815,0.0016599726983883953,0.001769898571481919,0.7071509213374726,0.0775102147449779,6.584431824629327e-05,-1.1126107893121884e-05
2024-05-11 03:18:59.634,0.0014039132012676754,0.617810478193374,-9.857072771796295,0.001681376445609086,0.0017905498158879225,0.7071521514737055,0.0011894913457215711,-2.1183486581782404e-05,7.26374133351051e-05
2024-05-11 03:18:59.688,0.0014564832885631555,-0.022323184052032992,-9.839318132209383,0.0016927737687079066,0.0017998199850827177,0.707155106129852,0.0005845499403199653,-5.978762543434894e-05,0.00016878036499727784
2024-05-11 03:18:59.746,0.0012051719973543164,-0.16098631130503316,-9.776361846742729,0.0008637756594694302,0.0009697229215121043,0.7071587244740545,-0.04692639446002915,-2.7584412909377512e-05,0.00011281129791250922
2024-05-11 03:18:59.799,0.0021827239138560127,0.12395612423144065,-9.74728521228624,0.0001253821035297823,0.00023363159589001706,0.7071598024775327,-0.04170474187014861,6.822388263448716e-05,2.5519824356447312e-05
2024-05-11 03:18:59.852,0.001372959687431424,0.6577549160732881,-9.811937715477475,-0.00016143919398103643,-5.01722139684466e-05,0.7071599960309997,-0.016139709744936358,8.655718277210281e-05,8.893106075030388e-06
2024-05-11 03:18:59.905,0.001552438647127423,1.109602255430338,-9.860259105569483,0.0004694648224811429,0.0005828198216548323,0.7071590631133385,0.035748389139459075,5.633914109673295e-05,-3.93751461551034e-05
2024-05-11 03:18:59.959,0.001478636304709378,1.0857182621288752,-9.845564791817399,0.0015171449901483912,0.0016324147872601971,0.7071572072008553,0.05931997467833741,4.973235483047071e-05,-1.2211560638657483e-05
2024-05-11 03:19:00.013,0.0016057760295916093,0.5210038871074112,-9.804189298289218,0.002156024896444589,0.0022697356626672997,0.7071571670524421,0.036096528718172885,-4.645372564995331e-05,9.749823984527974e-05
2024-05-11 03:19:00.066,0.0015097128731729344,-0.09624909850889442,-9.784888570169622,0.002437262053105077,0.0025480987612851004,0.7071579049757425,0.01582795945160939,-8.21580242941259e-05,9.597216041586882e-05
2024-05-11 03:19:00.118,0.0019608303524342734,-0.5480121677288594,-9.798894357174996,3.333389909161243e-05,0.00014547259270534951,0.7071624120609641,-0.13595017504526438,4.751805421786845e-05,-3.899328401675007e-06
2024-05-11 03:19:00.173,0.0010618231051897512,-0.024535127448577897,-9.77090457611146,-0.0016477631076301164,-0.0015338809726045191,0.7071612539572995,-0.09504796979302495,5.673721092559943e-05,2.800338003709176e-05
2024-05-11 03:19:00.225,0.0014540926818530932,1.3970128993991224,-9.791404847650186,-6.304681898043781e-05,5.428121007822966e-05,0.7071639372888565,0.08974263418245174,9.033124281402262e-05,5.78114828832314e-05
2024-05-11 03:19:00.276,0.0013994084969611237,1.844889128963141,-9.862478819688391,0.00024070219318796454,0.00036076271712522697,0.7071637838345062,0.017259932600245508,7.589013440784859e-05,-3.657810620059979e-06
2024-05-11 03:19:00.328,0.0017443519563157348,1.1712262258096249,-9.85470078644367,-3.833696445739938e-05,7.843226602721658e-05,0.7071649800351845,-0.015877943496995593,-9.180826359649714e-05,6.27181218467663e-05
2024-05-11 03:19:00.381,0.0024205513214739112,0.8196889748365384,-9.795416519449798,-0.0002017393942457335,-8.601696297843172e-05,0.7071650849278386,-0.00927304822922786,-2.8845789698166813e-05,5.972266699501839e-06
2024-05-11 03:19:00.439,0.0015144911079980525,0.8964432559734153,-9.75230783469258,-7.697940598186387e-05,3.842637304988991e-05,0.7071656655117674,0.007048531076082351,-9.53848855857391e-06,3.260809518565215e-05
2024-05-11 03:19:00.493,0.0010999410665651138,0.8970531150701373,-9.800150059342707,7.943436768180765e-05,0.00019633956907967148,0.7071659204637838,0.00889051153750846,4.1672828039970396e-05,1.5890122653632244e-05
2024-05-11 03:19:00.545,0.0012442807508420465,0.7688238327763831,-9.853131694244485,-3.774836854611118e-05,8.099154056656494e-05,0.7071664698987147,-0.006576961431850221,5.2444565416663e-05,2.9800554854993354e-05
2024-05-11 03:19:00.600,0.0012571699215600874,0.6680636669544064,-9.828937890682525,-0.00011898205763589479,3.457069710576693e-06,0.7071668551120422,-0.004490634736909608,0.0001050070539914536,2.1548052560456067e-05
2024-05-11 03:19:00.655,0.0013429907626697519,0.6638662457864932,-9.78416530509253,-4.2531643315495855e-05,8.150190877256876e-05,0.7071672147309643,0.004369787681543712,4.472643839761315e-05,2.06076121590971e-05
2024-05-11 03:19:00.709,0.002149851082073089,0.643628013483222,-9.792059101727778,2.542510848656835e-05,0.0001470968254506432,0.7071680442333264,0.0037774018302650703,-6.711983964284094e-05,4.754395130132554e-05
2024-05-11 03:19:00.762,0.002108417870558683,0.5605648325627609,-9.825864526332271,1.1622906274080207e-05,0.0001318976344679761,0.7071683141085355,-0.0008202879853871475,-3.944019486282012e-05,1.5106158291524611e-05
2024-05-11 03:19:00.814,0.001523506746649567,0.49417762183299413,-9.824829454472008,-4.553795095774359e-05,7.446110632717426e-05,0.7071689136082863,-0.003241307054714638,-7.514354231578002e-06,3.344199923070169e-05
2024-05-11 03:19:00.868,0.0012201693965861282,0.47299065999917345,-9.797385894072539,-0.00012718142215249523,-6.526709186033193e-06,0.7071696555624926,-0.004599909364236176,1.8945040193189565e-05,4.1758487721695295e-05
2024-05-11 03:19:00.920,0.0011300834930648485,0.47897528037173737,-9.791770484875613,-0.00016292557792126427,-3.858283321208499e-05,0.7071700983769564,-0.001917674451092247,0.00010448025244762936,2.5139222854629984e-05
2024-05-11 03:19:00.972,0.001072884646391387,0.48734835013303357,-9.816619194440936,-0.0001050904445103899,2.4687500027307787e-05,0.7071703425658415,0.0034253923869423564,0.0001534231110213616,1.3796930133797106e-05
2024-05-11 03:19:01.025,0.0014617276735068424,0.45690538112337287,-9.832476264372199,-1.812726424230074e-05,0.0001101102780192772,0.7071712660742774,0.004875802510684804,-4.40040313751359e-05,5.271257307080072e-05
2024-05-11 03:19:01.078,0.0027562262458185076,0.387759101203909,-9.815208147675158,-2.7798117590145595e-05,9.904802338338113e-05,0.7071717137265727,-0.0005864267038678516,-3.930001445868128e-05,2.5236764627776524e-05
2024-05-11 03:19:01.131,0.001627373753774039,0.32041650080515743,-9.790416248784188,-6.363913741580682e-05,6.265938601731955e-05,0.7071719530450623,-0.0020429658272344362,-1.5301345845840625e-05,1.330374988350207e-05
2024-05-11 03:19:01.184,0.0014286279228066044,0.29770531805537526,-9.795095865102589,-0.0001362264275891413,-1.0631979444853725e-05,0.7071724558590093,-0.004126075820002985,-1.95368537129521e-05,2.828950057823119e-05
2024-05-11 03:19:01.237,0.0012937398533933717,0.31297298960935094,-9.817322156686867,-0.0001716651089852491,-4.233047532387293e-05,0.7071727791995831,-0.001898918002731819,0.00010596203842390132,1.8391831986987615e-05
2024-05-11 03:19:01.288,0.0008732967939003613,0.3266402801651002,-9.8241026503693,-0.00016755238849677876,-3.323331608999635e-05,0.7071733163274715,0.0003736420986287645,0.00014094202274973452,3.0399917850122022e-05
2024-05-11 03:19:01.340,0.001275679507788403,0.3214432908980103,-9.81329223096566,-8.844584293248892e-05,4.8577785857958656e-05,0.7071737700339459,0.004551443116272079,7.606735239285118e-05,2.5722441820699982e-05
2024-05-11 03:19:01.391,0.002188958636164738,0.27458648115497963,-9.805975854299247,-5.406141551219003e-05,8.073449538176555e-05,0.7071744556872173,0.001882057884123956,-6.318695642941443e-05,3.895881287193933e-05
2024-05-11 03:19:01.444,0.002419880921592393,0.21651171108978123,-9.80506176123568,-8.17738548786009e-05,5.039200651190531e-05,0.7071747835599903,-0.0016420501763840327,-7.423226938172597e-05,1.8386620627453512e-05
2024-05-11 03:19:01.495,0.0015708848472623775,0.1847117425801243,-9.806781727684784,-0.0001400932791359847,-7.431954791158095e-06,0.7071751970555125,-0.003285031865088782,1.4327342647311253e-05,2.3296720882287195e-05
2024-05-11 03:19:01.547,0.0009859097119823228,0.19130738256459448,-9.808784536786366,-0.00019504130541880536,-6.126612630677815e-05,0.7071758150215894,-0.0030768254945364565,3.179595904619018e-05,3.512029877394119e-05
2024-05-11 03:19:01.599,0.0012128291693090517,0.21393555655543375,-9.810477960543357,-0.00021699817505200223,-7.946789820101831e-05,0.7071761387132779,-0.0011358493547003919,0.00010631725863996183,1.8459602416387333e-05
2024-05-11 03:19:01.652,0.0010438289068470832,0.22731662550415108,-9.81437470714272,-0.0001542009543697322,-1.1257828234371344e-05,0.7071764471376023,0.0037054590723761935,0.0001527329281691739,1.723703563779666e-05
2024-05-11 03:19:01.707,0.0014901783205704554,0.20273607425434534,-9.81740560318559,-9.372086184400793e-05,4.818290909811581e-05,0.7071774648418173,0.003391864608683422,-2.9733478803024126e-05,5.766163747929516e-05
2024-05-11 03:19:01.760,0.0026586598197847248,0.14810933377260713,-9.810843690901036,-0.0001131780499336273,2.5972725194603473e-05,0.7071776129944753,-0.0011785398550650116,-7.774917032772656e-05,8.306148251286355e-06
2024-05-11 03:19:01.813,0.0019420713088741358,0.1145077160071642,-9.80044966580073,-0.00015370177186395574,-1.7069282306421565e-05,0.7071783244957013,-0.0023636067905357058,-7.099592985337288e-05,4.0220165037999276e-05
2024-05-11 03:19:01.866,0.001605238131713162,0.11551512031231902,-9.801812097530423,-0.0002112537772482306,-7.614493910830639e-05,0.7071787025097219,-0.003298734899267561,-4.276593129715754e-05,2.1588758576812318e-05
2024-05-11 03:19:01.921,0.0010669119210720889,0.14017264536926066,-9.812456741523654,-0.00024284425934881747,-0.00010339172200354492,0.7071789341081106,-0.0016641580206787623,0.00012302441985930586,1.3358433224915871e-05
2024-05-11 03:19:01.979,0.0005143770356252604,0.1544402540589655,-9.81843722915249,-0.00021662937131022546,-7.298216734602384e-05,0.7071794170458402,0.0016015904881244586,0.00011847404430065932,2.7155871350094678e-05
2024-05-11 03:19:02.034,0.0015971869098289162,0.15163595024292967,-9.816202148211833,-0.00015737116988791188,-1.0274351068811273e-05,0.7071802313048682,0.003449725225426079,9.720994710846937e-05,4.5880422613573986e-05
2024-05-11 03:19:02.087,0.0016453568278601643,0.1152359753013265,-9.810076933061776,-0.00014060364383457842,5.260110354090105e-06,0.707180620492012,0.0009136322874185832,-3.497335923649606e-05,2.2008232733446945e-05
2024-05-11 03:19:02.141,0.0028287640723380037,0.07932330832538313,-9.803020581645844,-0.0001589767699901164,-1.7989427587165192e-05,0.7071813038195272,-0.0011772849860862103,-0.00013780763359789875,3.8636245021192816e-05
2024-05-11 03:19:02.194,0.0020048585568458897,0.06175517262354138,-9.803015086842917,-0.00023988635830663512,-0.0001020915869396736,0.7071816762299707,-0.004667248716571159,-8.981273225021088e-05,2.1429469673601664e-05
2024-05-11 03:19:02.246,0.0013333692371508051,0.0830299143343343,-9.809423144645448,-0.00027696045738411694,-0.0001395978158818904,0.7071823516330077,-0.002109455343960737,-1.2010321295416655e-05,3.8566156715985115e-05
2024-05-11 03:19:02.301,0.0006070274746308289,0.11795044578334993,-9.814834966737234,-0.00024166703690245978,-0.00010012462928270158,0.7071826594360093,0.0021147299983164994,0.00011799139699204857,1.7092365412452065e-05
2024-05-11 03:19:02.357,0.0007979402274289619,0.1203319346275612,-9.816420450212952,-0.00018399210219438843,-3.680214572946683e-05,0.707182879779502,0.0034223397438082528,0.00015936754049653798,1.2168794827611286e-05
2024-05-11 03:19:02.410,0.0014104510616988171,0.07616141267366983,-9.81433177317407,-0.0001689791816172131,-2.2355468890760554e-05,0.7071837759283471,0.0008332362755703839,-1.6112337121782138e-05,5.0660779437874336e-05
2024-05-11 03:19:02.465,0.0026244796803795664,0.04146351319342055,-9.806416556120622,-0.00019988419102512494,-5.597994145173992e-05,0.707184009358728,-0.0018251791227163975,-7.672165899338711e-05,1.3283853894664664e-05
2024-05-11 03:19:02.519,0.0021284463299198423,0.03231975998654239,-9.800606500514846,-0.0002460554180941281,-0.00010606273744977941,0.7071847739775922,-0.0027224913555220077,-0.00011034929198997797,4.35277974213514e-05
2024-05-11 03:19:02.573,0.001789383640290206,0.04954419474652602,-9.805610310206072,-0.0003167465554395235,-0.00017943979585551453,0.7071853782916897,-0.004074875887211658,-7.553195196217193e-05,3.497393235074599e-05
2024-05-11 03:19:02.626,0.0011483063611020486,0.0849592484547322,-9.813936892421188,-0.0002885870758601287,-0.00014761463437279888,0.7071855965890945,0.001696632283454431,0.00010348874140641895,1.19976433283404e-05
2024-05-11 03:19:02.679,0.0007197617832490875,0.10282501883017742,-9.817655011359225,-0.00021813064476002722,-7.134675869187497e-05,0.7071858535030956,0.004150007107450992,0.00016390683831563532,1.3933990133068686e-05
2024-05-11 03:19:02.734,0.001580542168501566,0.06979549939842385,-9.81531524976615,-0.00020872429622498972,-6.11059385492961e-05,0.707186898369633,0.0005557023317060947,2.3528992696391752e-05,5.906795838616609e-05
2024-05-11 03:19:02.789,0.002554163317301004,0.033035540911670894,-9.808428771579761,-0.0002393722581826052,-9.226054136812759e-05,0.7071870706177994,-0.0017480432011652363,-1.4134181793405996e-05,9.929427868327109e-06
2024-05-11 03:19:02.844,0.0026087600997562847,0.019195575439453265,-9.80159584443887,-0.00026348606038214346,-0.0001194886876211633,0.7071876602700209,-0.0014521830634883584,-8.793108963142408e-05,3.3542569152367005e-05
2024-05-11 03:19:02.899,0.0022326694724152454,0.03440081802950925,-9.80380121619081,-0.0002968572320627352,-0.0001539848869616521,0.707188127111611,-0.0019195855584550699,-3.1609462823956137e-05,2.6768781249158118e-05
2024-05-11 03:19:02.954,0.0012144737971314685,0.05570840284297844,-9.812139998731073,-0.00030873344381183353,-0.0001650638933557592,0.7071884511029675,-0.0006492709335361243,2.26169142285296e-05,1.848638083149712e-05
2024-05-11 03:19:03.008,0.0015068316395693041,0.06431300720698119,-9.816150552943649,-0.00032425300160427844,-0.00017429516188990693,0.7071886253149134,-0.0007000396430055511,0.00017793703120836367,1.0106825998017466e-05
2024-05-11 03:19:03.063,0.0007373940197706677,0.06725835963834417,-9.814456477260888,-0.0002833530556930385,-0.00012930856296391194,0.7071890859179369,0.0024292490538968346,0.00011529919798616159,2.5579637581897665e-05
2024-05-11 03:19:03.119,0.0024506259678842156,0.05027939566772042,-9.812070335805801,-0.00024757907224815515,-9.301304978847027e-05,0.7071898702499946,0.0020384301630381077,1.45031051658628e-05,4.4057931599929884e-05
2024-05-11 03:19:03.175,0.002452172267965357,0.021232343525445768,-9.805932640933838,-0.0002535768104276007,-0.00010398031310369184,0.707190464406413,-0.00047986279921222505,-0.0001405114988525522,3.362989554317707e-05
2024-05-11 03:19:03.231,0.0030976213799747904,0.005082548645595106,-9.802501369335157,-0.00034257771586340295,-0.0001967065151232632,0.7071909721645824,-0.005140034602085904,-0.00010477009088739947,2.9761913647021976e-05
2024-05-11 03:19:03.284,0.0015096653861830737,0.02299331865669676,-9.80646060767631,-0.0004113540466253745,-0.0002671368688255874,0.7071914786630521,-0.003937368609600968,-4.6328038735445794e-05,2.991760831978734e-05
2024-05-11 03:19:03.338,0.001117575508611241,0.07516502553206166,-9.813170413978686,-0.0003554336908949094,-0.00020911173104782432,0.7071918015765979,0.003222870907845673,5.913892724290168e-05,1.7210788407618565e-05
2024-05-11 03:19:03.394,0.0011851502227788976,0.08279602968837949,-9.817792195167948,-0.00029758365121384964,-0.00014723837949195316,0.7071923889028986,0.0033862993271182532,0.00011337879885350334,3.2417592126739674e-05
2024-05-11 03:19:03.451,0.0015594973829654996,0.04674781779034853,-9.816032740643555,-0.00023014099882492545,-8.051470438672536e-05,0.7071934796141148,0.0037947880013608293,-2.080881254693841e-05,6.109046547960847e-05
2024-05-11 03:19:03.505,0.0026346013213793236,0.0006870933831280445,-9.808324556588612,-0.00024761632481581084,-0.00010045245450748989,0.7071935647784845,-0.0010582106749649131,-6.951929979096772e-05,4.928316873876752e-06
2024-05-11 03:19:03.558,0.0023607045834201598,-0.02578277895147053,-9.79981264118995,-0.00033690038823986127,-0.00018993767078152038,0.7071938649327569,-0.005056361603933568,-5.075352246206872e-06,1.801702609405541e-05
2024-05-11 03:19:03.615,0.0014428086270988954,-0.007222295173799336,-9.80268940335404,-0.0004179738862341886,-0.0002721660099856827,0.7071942768398419,-0.004618880461935872,-3.2106698529407454e-05,2.4792456028161182e-05
2024-05-11 03:19:03.669,0.0017710446809441806,0.0481475110841933,-9.813199936902897,-0.00040810928516825834,-0.00025973842036847226,0.707194580037543,0.0006305256385392407,7.24061619297005e-05,1.6957562444149455e-05
2024-05-11 03:19:03.722,0.0013360490745309773,0.07858774251493171,-9.818502887390881,-0.0003578551448403269,-0.00020170958737181953,0.7071948713081422,0.003062730879982536,0.00021951471355994212,1.5581433694876072e-05
2024-05-11 03:19:03.778,0.0007367900954221787,0.057883564047268694,-9.8160816350764,-0.0003099478756519642,-0.0001505762326636988,0.7071953955551794,0.002801300154926161,9.088881266254292e-05,2.8998257627689956e-05
2024-05-11 03:19:03.833,0.002877242024841428,0.02307875437939868,-9.810126572552644,-0.00033393129050235214,-0.00017410516396789279,0.7071961621562701,-0.0013438554902841108,1.3007547753142968e-05,4.368589927410695e-05
2024-05-11 03:19:03.888,0.002368541460150746,-0.002010849125313521,-9.801999759020294,-0.0003745332357382384,-0.0002185702322229798,0.7071970099723238,-0.002406077842919342,-0.00010898166593602824,4.857282746711368e-05
2024-05-11 03:19:03.941,0.002792110005143374,0.018305534962575386,-9.80215566241188,-0.0003990382224927239,-0.00024693088406895543,0.707197415787944,-0.0014952826465340538,-0.00010887441499703535,2.3387957159366667e-05
2024-05-11 03:19:03.995,0.0019011686738061755,0.037442541310702585,-9.810959640556069,-0.0004126653315929193,-0.00026049838989562616,0.7071977670242696,-0.0007691818997367077,1.774927693087793e-06,2.0148560230913944e-05
2024-05-11 03:19:04.051,0.0006888222017341372,0.052917431400092085,-9.816229063432958,-0.0004506111477229245,-0.00029739739703221345,0.7071981951430315,-0.002116930449604628,2.9867639063272872e-05,2.507622094392146e-05
2024-05-11 03:19:04.105,0.0016936765169243131,0.05772742432349604,-9.814857877271482,-0.0004259571647966851,-0.00026876108214179284,0.7071984171027976,0.0015072906723659382,0.00011243637813317961,1.2019533797809358e-05
2024-05-11 03:19:04.158,0.001459892267811107,0.06447231611036637,-9.812399092659026,-0.0003265403567621754,-0.00017112867912365598,0.7071992930984407,0.0055733820194141985,-5.1210403281845987e-05,4.780631904969189e-05
2024-05-11 03:19:04.214,0.0028000466648066898,0.028392118945021118,-9.807892795463527,-0.00028068946080580815,-0.00012737140635209627,0.7072000227158953,0.0025344897064212115,-5.956013589820815e-05,4.072199034733793e-05
2024-05-11 03:19:04.270,0.0018398097076149295,-0.024667128683889927,-9.802357852533227,-0.00039785358025879174,-0.00024460630286496517,0.7072008731433784,-0.006629811463569048,-1.149865273549354e-06,4.985714405066819e-05
2024-05-11 03:19:04.324,0.0016894529828914598,-0.014273409719485652,-9.798749536521521,-0.00047400223860717206,-0.00031956287012787325,0.707201102903592,-0.004273898846721445,3.42784084888662e-05,1.4728939818243331e-05
2024-05-11 03:19:04.380,0.0016853615870638136,0.06133965852913904,-9.799503162713107,-0.000400815168960849,-0.0002431981325483175,0.7072016175043632,0.004229973356316045,8.93005748872958e-05,2.7476452862586297e-05
2024-05-11 03:19:04.438,0.0013694725825923015,0.07626946955215609,-9.83847351580658,-0.0003246367199553668,-0.00016388670730051942,0.7072020656386215,0.004397927273181605,8.801528265649647e-05,2.412306762595799e-05
2024-05-11 03:19:04.489,0.0018696915297889334,0.030471904491273797,-9.832756964982856,-0.00036047026806451443,-0.00019631534973557865,0.7072020230250924,-0.0019307332382658016,9.656634172596907e-05,-1.8676354719574756e-06
2024-05-11 03:19:04.541,0.0017474150547450301,-0.003508100796164348,-9.797065053460823,-0.00044034052566511696,-0.000278290384243727,0.7072028508137211,-0.00457769016537335,-5.8939610857219916e-05,4.832948839394641e-05
2024-05-11 03:19:04.593,0.0030788258429414773,0.02282768019344733,-9.78425238374912,-0.00044547393604972904,-0.0002895705381547362,0.7072038004766277,-0.00046427534614070334,-0.00017382100682169398,5.380394058553253e-05
2024-05-11 03:19:04.646,0.0025062069940903218,0.059423955187088144,-9.806402213753653,-0.00039500373359044886,-0.00024032966967944553,0.7072042120835268,0.002820248092379716,-3.5168167283474656e-05,2.221190423012253e-05
2024-05-11 03:19:04.699,0.0009170624499414139,0.05543596535509291,-9.826321340033422,-0.00039869177039195873,-0.00024270640453740342,0.70720468741378,-0.00017153552541395722,3.7100646991854935e-05,2.6972041838098285e-05
2024-05-11 03:19:04.750,0.0012058556190144337,0.029940270120641193,-9.820509608047093,-0.00041990356912593454,-0.00026154892061324174,0.707204797106902,-0.0011328986830024582,6.716723501687964e-05,6.65083300353094e-06
2024-05-11 03:19:04.801,0.0017575603312372271,0.029776663036449054,-9.805056452697254,-0.0004190542033359488,-0.00025875867830378997,0.707204917064971,0.00010295052185839044,5.487875080962987e-05,6.781333275074947e-06
2024-05-11 03:19:04.852,0.0018345148457176916,0.03569499507272174,-9.802216850302127,-0.0003678873497301499,-0.00021106379056707697,0.7072060715565615,0.002796211796245492,-9.861680129757761e-05,6.433997587535426e-05
2024-05-11 03:19:04.907,0.002728471049529915,0.035011849624007635,-9.801465179887856,-0.0003102198209737705,-0.00015443563295012417,0.7072066588546008,0.0032327627057246264,-2.9862741636346068e-05,3.237975445354456e-05
2024-05-11 03:19:04.962,0.0014569334486287586,0.0164150840125682,-9.808996692058788,-0.0003309808882295765,-0.00017377735291155917,0.7072066519111045,-0.0011342724880239379,4.030554171885985e-05,-1.1013802706435183e-07
2024-05-11 03:19:05.018,0.001631563375024811,-0.009627059441514983,-9.829412865173019,-0.0004272610333350803,-0.00027027728604023623,0.7072072665110258,-0.00545264943059285,-5.463937347770975e-06,3.648062607316599e-05
2024-05-11 03:19:05.073,0.001746930691995923,0.007100293695834136,-9.813117421726707,-0.0004910231049069405,-0.0003322214167243337,0.7072079179698525,-0.003555505824792482,5.190255584720793e-05,3.841063704725014e-05
2024-05-11 03:19:05.129,0.0016173815011792326,0.06541084647686508,-9.796643443751321,-0.0004260987435878643,-0.0002631359044704391,0.7072083409389893,0.0037903864140679112,0.00011714140107064746,2.2399150323709203e-05
2024-05-11 03:19:05.183,0.0016158518185602632,0.08039371500810251,-9.803709108392555,-0.00033325704080540213,-0.0001661032544370686,0.7072084997793193,0.005370474320371194,0.00011776325040335397,7.403819692770726e-06
2024-05-11 03:19:05.236,0.001845785803748806,0.049690296696075116,-9.813433140064506,-0.00030681865749286765,-0.00014308468590283708,0.7072095214122839,0.00139883333901994,-9.694658658481332e-05,5.7454288023518016e-05
2024-05-11 03:19:05.291,0.0033143130980654973,-0.005077851287582502,-9.830375014479156,-0.00036447122815486626,-0.00020480156013616467,0.7072099471005335,-0.003376297484097266,-0.00011447506894358607,2.48507324086871e-05
2024-05-11 03:19:05.344,0.0019996775977859553,-0.011801797594364801,-9.806886128940441,-0.0004447400724015456,-0.00028770417971898574,0.7072104460665993,-0.004615200601079125,-7.383602011333576e-05,2.9786644864631945e-05
2024-05-11 03:19:05.397,0.0012254475777828935,0.02720153814100456,-9.789878968816412,-0.0004451088764747897,-0.0002844371002191077,0.7072106849950762,8.198917050292928e-05,0.00010281931074972332,1.3549143519030294e-05
2024-05-11 03:19:05.451,0.0008722440822547697,0.061904683722868684,-9.807557985013856,-0.00043252116051968994,-0.00027113411342368995,0.707211108694723,0.0007323000201138836,2.0111412049220127e-05,2.369599699418811e-05
2024-05-11 03:19:05.503,0.002245417324716369,0.06315062992327648,-9.829949865744037,-0.0003810748595971876,-0.00021756441189312148,0.7072118180912761,0.0029703057426709767,5.9603627812462016e-05,3.9138771009926026e-05
2024-05-11 03:19:05.556,0.0015892438197541475,0.03289309432347276,-9.822030830268215,-0.0003326013751296371,-0.00017213076699939547,0.7072122239528058,0.002656079610147946,-8.638239577789318e-05,2.2192545308139274e-05
2024-05-11 03:19:05.607,0.0028184939677039175,0.007405566442004508,-9.788954258675997,-0.0003224089958949558,-0.00016179309385429527,0.7072121381449763,0.000580678783133727,4.024604486213832e-06,-4.990072553811708e-06
2024-05-11 03:19:05.661,0.0014577250784639233,-0.002163271880840775,-9.78039866425066,-0.00037406388002254946,-0.00021360443788205575,0.707212505922771,-0.002926470169101641,-3.9980520753351055e-06,2.158243862021585e-05
2024-05-11 03:19:05.713,0.001775670893737118,0.005137348245359249,-9.832854381319533,-0.0004454366828797058,-0.00028512999197907377,0.7072130983767585,-0.004041780920393928,-3.733749099398196e-06,3.4942336308217974e-05
2024-05-11 03:19:05.769,0.0015865031933141904,0.03327373657367605,-9.838195143502249,-0.00046001001431803727,-0.0002930797588043939,0.7072131516810555,-0.000637021710280333,0.00018743679433145863,3.39929939452672e-06
2024-05-11 03:19:05.822,0.0007497468899102554,0.06581237445335733,-9.804045408958274,-0.0004101283927840786,-0.0002393834339323311,0.7072134751173303,0.00292964124225381,0.00010744702885823292,1.725412969305582e-05
2024-05-11 03:19:05.877,0.0025070045640624753,0.05645517144483631,-9.79211926516324,-0.00034878032356232014,-0.00017680228738336693,0.7072142755332024,0.003505247724117883,3.4330927871634505e-05,4.426893489367723e-05
2024-05-11 03:19:05.932,0.002163629346347644,0.014436398711107825,-9.809898119135942,-0.0003488660196783058,-0.00017977135135417753,0.7072152584686664,-8.642072389702249e-05,-8.156160133124028e-05,5.559310475243464e-05
2024-05-11 03:19:05.986,0.002943706712146978,-0.009354159111797702,-9.817418082907496,-0.0004008933995916514,-0.0002357959802679316,0.7072158621902872,-0.003056194014866514,-0.00011260590362875697,3.498680584961071e-05
2024-05-11 03:19:06.042,0.0021135741936820535,-0.0035591693759906215,-9.80781437810647,-0.00046866389923527464,-0.00030424075152731727,0.7072167222220545,-0.003852758906059807,-1.8503848771156365e-05,5.011659183480834e-05
2024-05-11 03:19:06.096,0.0009368248025341577,0.03326714528398643,-9.801960457209514,-0.00046883902768776297,-0.0003014915127156156,0.707217437906272,7.281492257029616e-05,8.268020847723993e-05,4.051501791748224e-05
2024-05-11 03:19:06.153,0.0011897244238460477,0.0785527168751859,-9.79567561337775,-0.00042045118688075394,-0.00024979562912090747,0.7072174929835991,0.002830809969145347,9.312115092660627e-05,2.064432198309161e-06
2024-05-11 03:19:06.205,0.0018831766639350299,0.0687024405234149,-9.827391336488576,-0.0003592670139651747,-0.00018803031172623643,0.7072180855659712,0.003477535683182736,1.5879770122269495e-05,3.2457388073495564e-05
2024-05-11 03:19:06.259,0.002327965720200444,0.028871203805674896,-9.840191805875131,-0.00033392388128408083,-0.00016322361143793315,0.7072181246615235,0.001418448954933966,-1.5396658411155108e-05,1.8525635535791114e-06
2024-05-11 03:19:06.314,0.0023123244015925324,-0.011646401791748133,-9.800413623618805,-0.00039135294982673384,-0.00022264199067513317,0.7072186381827411,-0.003304957583320258,-5.575850493915683e-05,2.9922426315995986e-05
2024-05-11 03:19:06.369,0.0017448301913445795,-0.01229361901821725,-9.776163195647,-0.00046179446649142873,-0.0002917833819068842,0.707218812942595,-0.003947996813831092,3.739206370411175e-05,1.1350056631303533e-05
2024-05-11 03:19:06.421,0.0013763592193036095,0.03081323374391075,-9.80252260348885,-0.0004555732335991727,-0.0002841688894791035,0.7072186377258792,0.0003913409288134796,3.9350526548898404e-05,-1.0047584589111884e-05
2024-05-11 03:19:06.472,0.0015667618322844918,0.05462915982847949,-9.836461952273213,-0.00038909918301708267,-0.00021288919856653302,0.7072184615304922,0.0038962875358715104,0.0001353119097427499,-1.1270700583685373e-05
2024-05-11 03:19:06.525,0.0014183498600942558,0.04315743875271975,-9.831098372688501,-0.00039767105875906613,-0.00021810459561370188,0.7072190245006157,-0.00038995206131398356,9.498325331613546e-05,3.20240865572069e-05
2024-05-11 03:19:06.579,0.002013758109872921,0.009164270474143577,-9.796434082446492,-0.0004317723605363905,-0.000250924401341205,0.7072191878409833,-0.001892810455674471,3.654209287676236e-05,9.892419131714239e-06
2024-05-11 03:19:06.634,0.0023942690972596123,0.015317667384852155,-9.789846186263343,-0.0004383661414661606,-0.0002570934923134803,0.707219452886875,-0.0003609886017291156,1.2062040926828635e-05,1.5132878313572243e-05
2024-05-11 03:19:06.685,0.0018576256961635913,0.029528895227379486,-9.809811692405123,-0.00043357541910417623,-0.00025090205995588336,0.7072195746664455,0.0003106277177292915,3.9565234623702395e-05,6.80248647250763e-06
2024-05-11 03:19:06.740,0.001563977752605593,0.034509675786254496,-9.82034886177835,-0.0004295297182222433,-0.00024649502081794107,0.7072205897833067,0.00023907382225531022,1.0154605121123865e-05,5.735493829135597e-05
2024-05-11 03:19:06.792,0.001979868372112245,0.039820838465308525,-9.797785803967084,-0.0004209913729471025,-0.0002335831753800958,0.7072212202956871,0.0006067182906717865,0.00012358709846400435,3.553940292756879e-05
2024-05-11 03:19:06.846,0.0014101333602931803,0.04195012371310144,-9.810871723709202,-0.0003866925976301542,-0.0001957826387589138,0.7072217721758696,0.0020392885831968786,9.8701853264155e-05,3.065623331091206e-05
2024-05-11 03:19:06.899,0.002132176019721773,0.02945793099714957,-9.831128826935243,-0.00036128242699219,-0.00017192217038068883,0.7072224971478625,0.0013935716454528601,-4.407429442584852e-05,4.06331317490876e-05
2024-05-11 03:19:06.951,0.003002583201298962,0.02641866960431016,-9.80504034081748,-0.0003579184746783337,-0.0001721345048758486,0.707223183313554,8.911956357072278e-05,-0.00010118179121725822,3.8748847981783156e-05
2024-05-11 03:19:07.003,0.0024823499714891617,0.005489949706582471,-9.805734921160637,-0.0003812723165041268,-0.00019934029972677112,0.7072233524199505,-0.0014300617989011222,-0.00010871820443439622,9.882658492653727e-06
2024-05-11 03:19:07.056,0.0015290695968322957,0.006368272174698499,-9.807628951790672,-0.0004181787782185256,-0.00023826586559123685,0.7072243788766549,-0.0021448707250929884,-5.678231434505671e-05,5.870344904443668e-05
2024-05-11 03:19:07.107,0.0011832821321188694,0.02555897505336187,-9.81024047329811,-0.0004314519854626484,-0.000247310869379356,0.7072244925252199,-0.0006312353721639382,0.0001196935064119496,6.720589311010465e-06
2024-05-11 03:19:07.160,0.0007629720933251023,0.03656501766311387,-9.81303565160854,-0.00044525792722160257,-0.00025984275563392846,0.7072243966106281,-0.0007449396790383388,3.616241037526129e-05,-5.136369310947222e-06
2024-05-11 03:19:07.213,0.0019820914158001487,0.0461289086078649,-9.81552367974845,-0.0004122667269480227,-0.00022320823261265504,0.7072249492146248,0.001969326109668337,0.00010270712193858341,3.0649681956771284e-05
2024-05-11 03:19:07.267,0.0019141147163620853,0.03657136348019513,-9.813891443881705,-0.0003410019040389121,-0.00015264377266017499,0.7072252755388857,0.004011532578911651,-2.0486183498384327e-05,1.7387607691327135e-05
2024-05-11 03:19:07.318,0.0027261307265057885,0.0017381064110205723,-9.80409709735871,-0.000359185073138163,-0.00017213822999407008,0.7072255071865159,-0.00106569225304822,-3.6915168277288515e-05,1.3331689467039438e-05
2024-05-11 03:19:07.370,0.001906064358497765,-0.025572867948069455,-9.7989818083606,-0.0004526749407900439,-0.0002643168062851624,0.7072256449044514,-0.005251492144190666,3.796642288312158e-05,9.439588096286405e-06
2024-05-11 03:19:07.423,0.0014055958914415535,-0.0029023757164635122,-9.807099029270885,-0.0004935339525444136,-0.00030454623386164445,0.7072260403131638,-0.0022935278509587796,1.8180075292629013e-05,2.3307398194693038e-05
2024-05-11 03:19:07.476,0.0017930963680167543,0.046052956163230574,-9.816057700087368,-0.000424888026049451,-0.0002309158667546473,0.707226225530095,0.00402420435399147,0.00014029767939238743,9.032298826307592e-06
2024-05-11 03:19:07.528,0.0012196057742196972,0.04934749724532258,-9.81987742631347,-0.00043385481672651157,-0.0002357364015941138,0.7072268477595522,-0.0003899496330975611,0.00011732299875600752,3.5405677056416497e-05
2024-05-11 03:19:07.581,0.001868070173661093,0.028652049608058734,-9.811265021213782,-0.0004301854066222125,-0.00022906813177688953,0.7072270287602388,0.000292406737080682,8.476612964047466e-05,1.0195745888344609e-05
2024-05-11 03:19:07.634,0.002077425998785206,0.013118297751962034,-9.804131649424587,-0.00043764712471476965,-0.00023895130678055408,0.7072277399582775,-0.0004906050434386651,-6.842496589320086e-05,4.0357863770374806e-05
2024-05-11 03:19:07.686,0.003153336943178266,0.017557202666551027,-9.80183463553566,-0.0004484802844381697,-0.00025378542194695765,0.7072284789143158,-0.0007260054062752183,-0.00011306068300951574,4.198894218897023e-05
2024-05-11 03:19:07.739,0.002264264782526003,0.024273975698011686,-9.806820936363314,-0.00043764341708869386,-0.0002451613758936233,0.7072289009921309,0.0005504238149467999,-6.269427640325527e-05,2.3647795478344605e-05
2024-05-11 03:19:07.794,0.0012457589923010185,0.03173153467546611,-9.804361779221846,-0.00044092541584520934,-0.0002469569758973525,0.7072292274340158,-0.00014361147522470635,4.205751315520301e-05,1.8545806960872635e-05
2024-05-11 03:19:07.848,0.0011006189527245404,0.04079294691985446,-9.812564868069433,-0.0004167519933559275,-0.00021965058891269606,0.7072299841944755,0.0014560784926628651,8.834220852971936e-05,4.238615019141062e-05
2024-05-11 03:19:07.900,0.001638650218511094,0.03921769271245941,-9.829423761646625,-0.0003727935731200236,-0.00017404185970555305,0.7072306583534335,0.002533344629146791,4.622159968380841e-05,3.746038088072132e-05
2024-05-11 03:19:07.955,0.0021495388411881173,0.03503450349886233,-9.80909187322139,-0.00034521894657176986,-0.00014747680083828724,0.7072309663354078,0.0015312942505287465,-2.882924786554248e-05,1.7063417085751145e-05
2024-05-11 03:19:08.007,0.002502409058082948,-0.0003990960787246935,-9.809520374717621,-0.0003728047487662976,-0.00017646329860214208,0.7072313731804323,-0.0016001165834730693,-3.93455703228924e-05,2.3363717775927548e-05
2024-05-11 03:19:08.061,0.001721551789245204,-0.009736744952086367,-9.804103709748675,-0.0004292466326004667,-0.00023344534807470836,0.7072315574976628,-0.003208117837969501,-1.471790148490894e-05,1.1348904521472788e-05
2024-05-11 03:19:08.116,0.0017816844610509276,0.01073043689722332,-9.805503860040849,-0.00045284632328823366,-0.0002574585574923753,0.7072321717006491,-0.0013467032654580716,-1.1475938020910994e-05,3.521073256229334e-05
2024-05-11 03:19:08.168,0.0015772448908296273,0.03983098742525409,-9.813395700898784,-0.00041595476368372987,-0.00021757931815929093,0.7072325174955183,0.0021714186799557,8.411051955263956e-05,1.8882191246648333e-05
2024-05-11 03:19:08.222,0.001387437910163901,0.038773188112017146,-9.819487015908736,-0.0003831908413240374,-0.00018131361861603159,0.7072327106518678,0.001952468848012957,9.869363991916308e-05,1.0428671330706782e-05
2024-05-11 03:19:08.276,0.00178259830991518,0.008156523175815649,-9.814823697734615,-0.00041504208560561045,-0.00021194296284385896,0.7072330251742805,-0.0017672145318997285,3.4867357841215145e-05,1.8307981393160415e-05
2024-05-11 03:19:08.333,0.0020872659465518365,0.0058308170595672984,-9.801592584810013,-0.0004420280465221004,-0.00023618713067647415,0.7072331919249617,-0.0014489945965077305,7.780374344538968e-05,9.943743823425003e-06
2024-05-11 03:19:08.386,0.0016988462550938978,0.009470279433502697,-9.797601960899588,-0.00045225398456372136,-0.0002437159510887703,0.7072333959977622,-0.0005021685479188204,7.637007275228408e-05,1.1765868157413268e-05
2024-05-11 03:19:08.439,0.001955477419303086,0.03319452759246723,-9.808406419839033,-0.0004685037161769755,-0.00025584177950499097,0.7072342526821815,-0.0008025685778662077,0.0001167604320634226,4.8832039836163274e-05
2024-05-11 03:19:08.491,0.0012990659521688755,0.022269625503205204,-9.819587319345256,-0.0004586875598599261,-0.0002420581961618677,0.7072345264945128,0.0006675194167522998,0.00011208776357306552,1.532853997238775e-05
2024-05-11 03:19:08.548,0.002139524645613587,0.03023365081487811,-9.817094820857202,-0.0004434958308579315,-0.0002187006278217271,0.707235071491411,0.0010903757935879855,0.00023075336008405675,3.0620899330282555e-05
2024-05-11 03:19:08.631,0.0012229386173960425,0.019158284657785535,-9.808891173216095,-0.00044060871373503407,-0.00020778551871485115,0.7072352826130976,0.00039042520718877245,0.00022698955808551772,1.1966970022170554e-05
2024-05-11 03:19:08.684,0.0021040707362017293,0.00773766118610036,-9.804298076760768,-0.0004761591873256959,-0.0002459511325917877,0.7072375295363781,-0.0020850403111216218,-7.365337533199147e-05,0.0001277460157282022
2024-05-11 03:19:08.737,0.0036085770253027234,0.020416233686576208,-9.79812257019407,-0.00041219967328655344,-0.00018892065930447633,0.7072381245323389,0.0034220725801205453,-0.00019662999654043194,3.2505098750898085e-05
2024-05-11 03:19:08.789,0.0034466485612958653,0.032393871523038305,-9.798183199290797,-0.00039230662607824505,-0.0001720450950267461,0.7072385495006175,0.0010399539029540437,-8.555007722023732e-05,2.373237412921962e-05
2024-05-11 03:19:08.840,0.0010405692836750948,0.007451913721371291,-9.834862405827284,-0.00044931845764658603,-0.00022500009289992394,0.7072387038785849,-0.0031103120556728787,0.0001153199433295145,9.685570397229018e-06
2024-05-11 03:19:08.896,0.00010302311545248887,-0.0010610765862896518,-9.826347789593285,-0.0005611218728062791,-0.00033690036640072167,0.7072382245518798,-0.006327293369943744,-1.5424909333825807e-06,-2.4606770623497735e-05
2024-05-11 03:19:08.953,0.002357880136389274,0.053261336523501054,-9.797830879977555,-0.0004795231429995039,-0.00025360288906110313,0.7072392254694336,0.004663970002912736,4.715146363319571e-05,5.471243761377299e-05
2024-05-11 03:19:09.006,0.0016969854517598212,0.07772737266419943,-9.789278452048821,-0.0003045462431143084,-8.470566079843861e-05,0.7072400688931417,0.009726190577789558,-0.00017379474455010634,4.533896796031898e-05
2024-05-11 03:19:09.060,0.0034879127545966587,0.031748625171494314,-9.811652358254166,-0.00027564915393466465,-6.531179510206973e-05,0.707240344015418,0.0013658215415352937,-0.00026905300259312553,1.5320078083188098e-05
2024-05-11 03:19:09.114,0.0020513827215550818,-0.06139158448957996,-9.836753735621981,-0.00042292852314316,-0.00021833183490010786,0.7072408286361204,-0.008493785293838272,-0.00016077887266370192,2.9009798713958355e-05
2024-05-11 03:19:09.169,0.0010540658149261316,-0.04942207926340537,-9.809875767395214,-0.0005315356252110278,-0.00033169986661893815,0.7072412168844453,-0.006278434726310135,-0.0001334831767512007,2.429810821827179e-05
2024-05-11 03:19:09.224,0.0013841828060434974,0.027170562844771234,-9.78751657608585,-0.0005300827637087187,-0.00032386930707279087,0.7072410404652407,0.0002626106339887618,0.0001803446152528018,-9.969213785375225e-06
2024-05-11 03:19:09.280,-0.0004245892140045297,0.09024168929246845,-9.807740989891075,-0.000444818324958683,-0.00023597108293503524,0.7072415342051306,0.004897790725921116,7.355123694385169e-05,2.6037931603079847e-05
2024-05-11 03:19:09.333,0.0026877100682550273,0.06216391862249248,-9.833031332600305,-0.00034140797437168637,-0.00013581664152983173,0.7072424104174336,0.005757657693157679,-9.320523946628026e-05,4.802318689571819e-05
2024-05-11 03:19:09.387,0.003018368151850829,0.0022823330989990027,-9.819315373166386,-0.00033920634213162944,-0.00013691188277438536,0.7072429173895214,3.127147275080885e-05,-9.326531258959064e-05,2.8633336128766383e-05
2024-05-11 03:19:09.443,0.0019123518769714207,-0.04651385099428867,-9.78980530120426,-0.0004553348159831352,-0.0002538897283249226,0.7072431963634944,-0.006593250034124012,-2.2762673394936614e-05,1.7589975718155256e-05
2024-05-11 03:19:09.497,0.0011859429781137022,-0.02715688095282444,-9.789069835802016,-0.0005412958812622192,-0.0003420114675328236,0.7072436540461222,-0.0049238217416853886,-6.017983134244452e-05,2.7920761147550607e-05
2024-05-11 03:19:09.551,0.001921907630394613,0.03741280565568889,-9.817420504346074,-0.0006891750290759805,-9.41716201709834e-05,0.7081110982460649,0.002808830112321618,0.011164861969159936,0.04911781405560771
2024-05-11 03:19:09.604,0.3835640290787998,0.17576590832577604,-9.833619555910493,-0.00024456159775388124,0.0018586405757795984,0.711453183273387,0.06758751915543124,0.04277831454080176,0.1898196877498758
2024-05-11 03:19:09.659,1.2709001130392723,-0.10549076149877736,-9.841258635833682,-0.0023002476319141734,0.0037764796469198472,0.7171238320107763,-0.0045983275853632806,0.1127522232331897,0.32431721421353027
2024-05-11 03:19:09.721,1.198936477691624,-0.7739145738088021,-9.857853592605764,-0.0068664874702519035,0.002769371787926642,0.7240219882948473,-0.15890945960409922,0.1017826785217979,0.3983111554646457
2024-05-11 03:19:09.777,1.5071457675761115,-0.19254994217069163,-9.789477382541312,-0.008295721015230916,0.001998249579191411,0.7315540222178999,-0.0650018855982826,0.018222381588755294,0.4393658492956218
2024-05-11 03:19:09.832,1.483292788303986,1.150255305337002,-9.693689835836942,-0.005791411007614182,0.003084393326709895,0.7393228671867192,0.09717778844762047,-0.04445770382751533,0.4586531701938357
2024-05-11 03:19:09.893,1.1134648195824532,1.401401985612604,-9.746097869192258,-0.0028002188949318775,0.0037255009555946022,0.7470359563587381,0.09741113297378999,-0.07080466040575327,0.4613395884355048
2024-05-11 03:19:09.951,0.514643253994355,0.26777856784568216,-9.860022083985502,-0.0031199291387111893,0.0022705889252278596,0.7545755819850437,-0.053728329221350284,-0.029316474043538397,0.456193695044182
2024-05-11 03:19:10.006,-0.1456031623056519,-0.3382329077213623,-9.748294859041424,-0.004027348251030243,0.0018727556983769195,0.7620277261522539,-0.03777460753018259,0.01637323270225274,0.4572643814351573
2024-05-11 03:19:10.063,-0.13751228909182667,0.0023981709572425823,-9.77284414841323,-0.004933155931884858,0.0020005329870741973,0.7693793553421008,-0.021874555291724326,0.030143310240883667,0.4573852116722602
2024-05-11 03:19:10.121,0.01362426782042006,0.3694135077309956,-9.886982660520715,-0.005340077671946656,0.0025314766454448754,0.7765208888555589,0.0033672574175389446,0.025416124714577992,0.45048552976518197
2024-05-11 03:19:10.174,0.08877988599448075,0.5635448853076304,-9.913163440701238,-0.004549583568562737,0.0037059859650228236,0.7833894150687217,0.053827628689866,0.00503838997363415,0.4393278756751122
2024-05-11 03:19:10.227,0.09326208521950399,0.4267646923382387,-9.804869350000903,-0.003260227212489748,0.00414054877918505,0.7902867906393559,0.04337664014968953,-0.029068665623516482,0.44719040940184
2024-05-11 03:19:10.281,0.2322756516783887,-0.09877117267185374,-9.734084367343874,-0.003117498145395255,0.0032927246327519094,0.797153090187323,-0.02532750979281451,-0.024990562184473635,0.4512474458157224
2024-05-11 03:19:10.335,-0.16950132917187383,-0.4677015751210574,-9.688651660344345,-0.0038981418442348534,0.0025274008114205605,0.8039306871561991,-0.04535144813396861,0.006243994076966342,0.45224056264426105
2024-05-11 03:19:10.392,-0.4060237086340001,-0.13208781331454342,-9.776697774779437,-0.004732979359529435,0.0024049579578800085,0.810581189802986,-0.02615516935180851,0.02352333410074737,0.4508409098076651
2024-05-11 03:19:10.448,-0.33462765797994976,0.2743616897275707,-9.903677268803547,-0.0051252382271974335,0.002963416624345969,0.8169663310198085,0.006330421935658703,0.02552270665618953,0.4397373653945992
2024-05-11 03:19:10.504,-0.34608741582445035,0.4270356884248833,-9.891685001108856,-0.004806191118569278,0.0037614296444221412,0.8232179355072617,0.03077210380976591,0.008098700139829294,0.43728051931684003
2024-05-11 03:19:10.559,-0.14093079575107378,0.3147037229290734,-9.832655916488308,-0.004319448237945061,0.0038941839775736226,0.829496841978394,0.01285095484789031,-0.01269193142585438,0.4460165002080797
2024-05-11 03:19:10.614,-0.09543968900812404,0.023051950571366372,-9.814713708543778,-0.004042430156914781,0.003208723163235231,0.8356913963677991,-0.01885709263335289,-0.024337088822989267,0.44707821927893476
2024-05-11 03:19:10.669,-0.2779700937783581,-0.03668586640207406,-9.71745048129002,-0.004186647314162766,0.0027800800417093945,0.8417973528206855,-0.019750679721463618,-0.004597089681971391,0.44842871767347464
2024-05-11 03:19:10.724,-0.5256383459246199,0.1469127905035079,-9.722752593587728,-0.0042708406158784235,0.0034207963892366106,0.8478282450651325,0.017300477861753743,0.016914252517813186,0.4511238081335318
2024-05-11 03:19:10.779,-0.5313856871443149,0.14972611114053833,-9.87034719121856,-0.005137300430118969,0.0030420945938135135,0.8535845796956859,-0.03383563864551119,0.02127518010586861,0.43809359333668524
2024-05-11 03:19:10.833,-0.5712799907682654,0.12021921149577966,-9.88657846654253,-0.0053599704775386565,0.0026558192785997177,0.8592653390866033,-0.020450109272799562,-0.0006915494092368604,0.44006942345473365
2024-05-11 03:19:10.887,-0.26069676021995514,0.41213892261699303,-9.850169716068864,-0.00472707940905907,0.0028563258459862293,0.8649412678716146,0.017366677738243096,-0.017648633912895274,0.448016440604718
2024-05-11 03:19:10.941,-0.28572620165344675,0.49053121472979716,-9.810143056961433,-0.00429973350145838,0.0032601801370249163,0.8705251233257443,0.02014274081945931,-0.006394408218293131,0.44949520910301416
2024-05-11 03:19:10.997,-0.5756236455805545,0.25577813234325986,-9.741862586853102,-0.004555216270873903,0.002749778458171242,0.8759472181354482,-0.02516919646751179,-0.001095915589692569,0.4449629365169897
2024-05-11 03:19:11.052,-0.5910956500252913,0.17820455422538123,-9.80052109823881,-0.004805378885932854,0.0024671444193329756,0.8812827367179233,-0.017142934835185267,0.0032282186855580016,0.44692114971955144
2024-05-11 03:19:11.106,-0.5472267441488207,0.292246559490846,-9.876691825956774,-0.005049810116488094,0.0027336628885147253,0.8864731128426286,0.0022247584764679435,0.013650724102764817,0.4441039618947922
2024-05-11 03:19:11.161,-0.6273437080722962,0.35472387014569956,-9.79650793632315,-0.005079390953841817,0.003050670311651834,0.8914553756674568,0.0081178736072821,0.0070569269259736465,0.43534349622058593
2024-05-11 03:19:11.215,-0.5747443315927303,0.32237767806159184,-9.808680880588735,-0.004809094734863441,0.002971511421881358,0.8963591720962721,-0.0003900352334923838,-0.01088102728825399,0.4375341297362268
2024-05-11 03:19:11.270,-0.43847463048323415,0.23681639616597797,-9.884169693949955,-0.004736336143519324,0.002628836889245921,0.9012489690681034,-0.013410958819671113,-0.008584077783051692,0.44608573829659875
2024-05-11 03:19:11.324,-0.5333582422698775,0.2406886977317058,-9.829057472495426,-0.004937413965152369,0.0021937228229410716,0.9060601977529689,-0.02159730000526041,-0.0003784436632545384,0.44931885579062947
2024-05-11 03:19:11.377,-0.605443021396553,0.40615633587448563,-9.736897240782382,-0.0048265551915607115,0.002608466981527946,0.9107210943708607,0.014464140164484149,0.0031313592447372134,0.4460778050864854
2024-05-11 03:19:11.432,-0.6201596141297926,0.4870275881016562,-9.774213658194155,-0.004969574661720211,0.0028147661049216562,0.915147332280619,0.0026826478590218066,0.008826682982920256,0.43402980044485945
2024-05-11 03:19:11.485,-0.7550135303701367,0.2566665638331373,-9.840007404014116,-0.005307870250639073,0.002137497174143469,0.9194442492703229,-0.032714941705826873,0.0013715773683747599,0.43152701859818476
2024-05-11 03:19:11.537,-0.6090726123073109,0.3148566447243198,-9.893113743002711,-0.004581872775351344,0.002156809161370471,0.9232689951333092,0.010137431622432061,-0.026336018813108462,0.3933663043132767
2024-05-11 03:19:11.589,-0.7744048732615556,0.5019064055781564,-9.85489366333971,-0.0020712764428459656,0.0027640202962756284,0.9256063710266815,0.06027209297637156,-0.08296214138801465,0.2449864044183492
2024-05-11 03:19:11.642,-1.8466399454710658,0.11976522122984631,-9.71500995059916,0.0005483050119561359,0.0018202327922909522,0.9264621510677734,0.0046982562034391705,-0.11110570371217157,0.09051211085797485
2024-05-11 03:19:11.693,-2.3127839616947043,-0.33606826332213224,-9.635905370645995,0.0023077571684675113,-0.00026034940421389337,0.9262983474039832,-0.050652781791882116,-0.09653755842239367,-0.017259863603174202
2024-05-11 03:19:11.746,-2.357562426258173,-0.1922941748104031,-9.961803529363143,0.0024663077314886965,-0.003897215820997878,0.9248521093363146,-0.13293319870634507,-0.060279926940133004,-0.15191080738112075
2024-05-11 03:19:11.798,-2.873279041110323,0.7335376926600725,-10.118109904207659,0.0027023199203620924,-0.004730474073924376,0.9222311124277153,-0.028406171999701486,-0.020489380155069497,-0.2729683910138647
2024-05-11 03:19:11.852,-2.9866970471837098,1.7730044421174316,-9.720190245909894,0.004560859850651742,-0.001985710104122775,0.918355400651324,0.12802075139792338,-0.02607975397540687,-0.3971122192383236
2024-05-11 03:19:11.907,-2.7450774220061036,1.4160284746588594,-9.514472321385435,0.005626276188524791,0.0003983303942113212,0.9139432993328923,0.10222990403640249,-0.0025307689315124636,-0.44054341081329357
2024-05-11 03:19:11.964,-1.8254506422341963,-0.12253194918311373,-9.814121946207974,0.005203833394603667,-0.0006218478707858379,0.909365506860636,-0.04638949225887284,-0.0017915842301862797,-0.4456077588869773
2024-05-11 03:19:12.023,-1.3757788948635816,-0.8599935997041886,-9.989838852098416,0.004097633828858094,-0.002761755026580004,0.9046318163990468,-0.09843495679573809,0.005006936319095498,-0.4493182160880959
2024-05-11 03:19:12.078,-1.286800259070463,-0.25459866620061733,-9.747748358980598,0.003835239398020128,-0.003547672136409888,0.8997728112126301,-0.035152004489656656,-0.003180615435224253,-0.45040250882133814
2024-05-11 03:19:12.134,-1.0579669971309447,0.6646838072697873,-9.567594120328035,0.004355704644183279,-0.002629179647725789,0.8948140025566133,0.03986528376438839,-0.0024796886921550697,-0.44965596296917437
2024-05-11 03:19:12.189,-0.9715702443470178,0.7499030874324136,-9.824630151450506,0.004761305019168556,-0.0018254705972820596,0.889723955438092,0.03371918886166691,-0.00037527552457704375,-0.45116652589585904
2024-05-11 03:19:12.246,-0.8471403217835758,0.2337486460353018,-10.005556968708145,0.004800601110919854,-0.0013961121963036456,0.8845287892836545,0.013785000889139691,0.006026133834472763,-0.45042901504314825
2024-05-11 03:19:12.303,-0.7888995478429115,-0.10770670667181999,-9.87414791846504,0.004360977808454029,-0.0017800890922271325,0.8792652988122578,-0.023883589910205037,0.008196553172618455,-0.44662826329106875
2024-05-11 03:19:12.359,-0.6217802448446933,-0.17695674569823577,-9.623411958297705,0.0041559752925810906,-0.002465624633607065,0.8739287623029928,-0.030157839792691786,-0.00575577476240891,-0.4434436439987314
2024-05-11 03:19:12.415,-0.4253307300928354,0.0946063696658502,-9.660479898858373,0.004382139337097631,-0.002586424507309301,0.8684161831128555,-0.0021098481724090737,-0.010183366714646421,-0.4490599909643644
2024-05-11 03:19:12.471,-0.4942565455966779,0.3499609251990847,-9.92395029764486,0.004479762321676737,-0.0025378205759882147,0.8627887666608577,0.0013098401345439338,-0.00242196290225631,-0.4495678899188965
2024-05-11 03:19:12.529,-0.4461547671780986,0.2613839889358883,-9.961241010554794,0.004401341782342311,-0.002596907731646167,0.8571746523778501,-0.005873914229883044,0.0015308268848947843,-0.440068657625724
2024-05-11 03:19:12.582,-0.24028711509458453,0.1632490876313383,-9.738300557571158,0.004425957956924164,-0.0022297949394695133,0.8514181083335713,0.010903632436524518,0.006567714931428742,-0.44314350408785563
2024-05-11 03:19:12.636,-0.2608878414097429,0.1847561797615465,-9.7045131074915,0.00489434186035814,-0.001504074655179013,0.8454422833180527,0.03230042423137023,-0.0012955740299129448,-0.4517420676618512
2024-05-11 03:19:12.692,-0.2086298382933049,-0.06816478998204002,-9.861459859707903,0.004751859225097714,-0.00208889320154889,0.8393667922749245,-0.02513782068292175,-0.008009405490189182,-0.45088839858653607
2024-05-11 03:19:12.749,-0.07011299270599836,-0.24214821365062714,-9.869040452576183,0.004027888277994197,-0.003512755122840021,0.8332262244329434,-0.0659139027368501,-0.006297353510116313,-0.4476471792104889
2024-05-11 03:19:12.803,-0.06467500627187517,0.13813380718247578,-9.752047809442097,0.0033316355666316187,-0.00436240489549061,0.8270007816666624,-0.046028957089422895,0.005227463108992416,-0.4463314768287057
2024-05-11 03:19:12.860,-0.06733212183794174,0.8348675957676047,-9.736997078557637,0.004107436353513934,-0.0033467786058253247,0.8207479495562604,0.04871377988036389,-0.0026099522098378207,-0.44164531151740993
2024-05-11 03:19:12.917,0.18376270309379525,0.8629641476614418,-9.86956488029304,0.004886360905202301,-0.0021265372922005064,0.8143553844142213,0.05553647183817105,0.001859188585765593,-0.44436066758048004
2024-05-11 03:19:12.972,0.07843725825631974,0.2939501888692988,-9.92013150274129,0.004663043207291021,-0.002139892650837106,0.8078204038312309,-0.007873945638854123,0.006546493077862294,-0.4469501824431172
2024-05-11 03:19:13.026,0.10405925364976568,-0.1748188137482996,-9.80464853342895,0.004362801355556005,-0.0028493592388062336,0.8011740337919847,-0.032333292658609875,-0.007132805797797471,-0.44744543097592404
2024-05-11 03:19:13.081,0.2680673427680186,-0.09051315500804867,-9.663497383856805,0.00407155824320021,-0.003610425006740353,0.794420489189452,-0.03378929516609694,-0.008666130869340344,-0.447847238894338
2024-05-11 03:19:13.136,0.23063184558439614,0.2887043717443729,-9.788379632674753,0.004191840532458877,-0.003677525034160923,0.7875942865394501,-0.001692133018832209,-0.005270980209012078,-0.4462848685109502
2024-05-11 03:19:13.189,0.24101752225133252,0.5215765238619384,-9.925096010621733,0.0045752416994566236,-0.00328185433865825,0.7807227361296998,0.019422366602057005,-0.002416709109062761,-0.44304888441854096
2024-05-11 03:19:13.241,0.3040357115624274,0.3823939572883846,-9.850677938773693,0.004588481460427598,-0.003046471905495639,0.7736949439481378,0.005229311693217771,0.0052652063779233,-0.446841933331822
2024-05-11 03:19:13.295,0.24150486877956584,0.1760878392851634,-9.789118450838103,0.004186734890339959,-0.0032135995799706203,0.766557814090189,-0.017714806840741514,0.008137021116493531,-0.44753738959854394
2024-05-11 03:19:13.350,0.3282247668346734,0.15549853640481565,-9.758052325192217,0.004238695322536057,-0.0031716118887706686,0.7593233735076822,0.00025519951031773214,-0.0006316185354250186,-0.44765252988619697
2024-05-11 03:19:13.404,0.43336976147447565,0.2608002512533564,-9.796654433357178,0.004286875997709576,-0.0033016465984769426,0.7520648327707036,-0.0050915962866396455,-0.004959950128419758,-0.4432898299088581
2024-05-11 03:19:13.456,0.4685434181108472,0.22718821504470058,-9.850685575618442,0.0038947727887041917,-0.003950614896129548,0.7446885293223151,-0.03231965896261477,-0.00511987808592614,-0.4446623011695869
2024-05-11 03:19:13.510,0.433360662253265,0.3224644904181464,-9.833019039142904,0.0038414188462591106,-0.004074025976934967,0.7371833465142549,-0.007593475929072509,-0.0014812076070589537,-0.44699152705184253
2024-05-11 03:19:13.566,0.3827137166928504,0.5880762878298846,-9.804204292581957,0.004186194892534151,-0.003518909638307444,0.7296438496919755,0.023262396797672242,0.004746011690733383,-0.4438284870576143
2024-05-11 03:19:13.621,0.43940731543661277,0.5287503994500541,-9.810748230341673,0.004309866667186523,-0.003245301612284854,0.7219983489744066,0.00898189937522851,0.0036301453571216183,-0.4446727431356254
2024-05-11 03:19:13.673,0.5009940212731528,0.2293431258501956,-9.829083176997264,0.003836883220171943,-0.0035763457307262554,0.7142431713978944,-0.024988578625076384,0.004478887964690953,-0.44567387251501506
2024-05-11 03:19:13.727,0.48766281882517154,0.2172077146101804,-9.835420361155235,0.003634442133947749,-0.0024144429243342196,0.7073380708651256,0.025842824103330646,0.03799854897181629,-0.39301982674829905
2024-05-11 03:19:13.780,0.7827816508506759,0.29996523838655353,-9.760359863025739,0.0024437608340497725,0.0003052260977216454,0.7030518035972733,0.042916524011202425,0.11011735742390275,-0.24247496889495418
2024-05-11 03:19:13.835,1.7379782384849245,-0.18359973620289327,-9.64651546257335,0.00037780404495505837,0.0022385325522556844,0.701544053915448,-0.004285593998205567,0.11293656702925095,-0.08493942417374017
2024-05-11 03:19:13.890,2.3957060443414298,-0.4543564706834219,-9.766399489635253,-0.002048127409415008,0.0032043234393458503,0.701183397944793,-0.04197399777909633,0.09559038086088806,-0.020187116064514614
2024-05-11 03:19:13.945,1.9645383696151366,-0.21961493887904857,-10.193972364168063,-0.0031298362040188873,0.0028500780756012803,0.7010206652179278,-0.0407462972301791,0.02023891128375692,-0.009207771774208878
2024-05-11 03:19:14.000,1.8421458369591854,0.256205218665799,-10.000529782821406,-0.0018845722007158753,0.001943485803915451,0.7009512159226604,0.010110964496470316,-0.060779885525127836,-0.004059576949944395
2024-05-11 03:19:14.053,1.6993747682607612,0.5515686003444729,-9.457361528346839,-5.461276254562257e-06,0.00016538800859314007,0.7009378944530062,0.0037533654680482814,-0.10341307651553062,-0.0008688931376574476
2024-05-11 03:19:14.106,1.2455094829006272,0.5881348025334301,-9.485540461016294,0.000614209110471241,-0.0004949905057794829,0.7009497993542272,-0.0008363274147718233,-0.03621382707490886,0.0006825652195185201
2024-05-11 03:19:14.160,0.33023492610828836,0.6064103177148605,-9.98307298017971,0.0008474961349484257,0.0003043376062409855,0.7009707445826134,0.029067326609817926,0.016263597305525603,0.0011423498747180519
2024-05-11 03:19:14.214,0.4270279780929658,0.3998951403590365,-10.225713698648477,5.637481994269388e-05,0.0012498610133161664,0.7009793154715946,0.003942244924008395,0.04915606538394946,0.0004490127540193631
2024-05-11 03:19:14.269,0.568515480617723,0.14341652105050853,-9.725497201084758,-0.0010831543436465372,0.0015830436500613137,0.7009638082791537,-0.023163810171113946,0.04145602001250634,-0.0008618987047233771
2024-05-11 03:19:14.323,0.8330296620405161,0.1363237818446822,-9.491602020271399,-0.0010422356579539015,0.0013509299804171872,0.7009563548826249,-0.005340085611065415,-0.007769102424811584,-0.00044162414915034333
2024-05-11 03:19:14.378,1.0908351227337576,0.2849858730013673,-9.811004344037526,-0.00019410254591159081,0.0006142650438859805,0.7009555234842695,0.003540883288792084,-0.04479593222318792,-7.661195396053442e-05
2024-05-11 03:19:14.435,0.9135910865448923,0.3221269049183725,-9.995290441662249,0.0005954839774436093,-0.0002633948093711042,0.700964448351695,-0.0020822345818252183,-0.047176537774561884,0.0005108604382710675
2024-05-11 03:19:14.490,0.5835870876787775,0.32061800816886277,-9.858122931081551,0.0008019936276971252,3.686361445664422e-05,0.7009763940829076,0.014310456271960079,0.0027758833161880938,0.0006640035235899597
2024-05-11 03:19:14.543,0.16060028521024897,0.2643815007040216,-9.734206091198594,0.00024203583350665514,0.0007846411237360677,0.7009775566908343,0.004992861297844413,0.03703285583415749,3.63535941624429e-05
2024-05-11 03:19:14.597,0.28228197303006364,0.12946074679261252,-9.720893580684836,-0.0008184612084811476,0.0013762619829782512,0.7009681709451684,-0.013663809129443682,0.04661258872640041,-0.000512353248404942
2024-05-11 03:19:14.652,0.4607792943136357,0.0948621857295777,-9.826260152143178,-0.0010640770607619218,0.001347510196124689,0.7009598287290145,-0.007812211203217458,0.006066464644830151,-0.00047360557843100783
2024-05-11 03:19:14.705,0.796744829850284,0.21468696503524182,-9.927048714571182,-0.00037837405529051376,0.0010208935758748577,0.7009396193944455,0.010405072433014716,-0.028544288589786526,-0.001137592970871835
2024-05-11 03:19:14.760,0.6941628894747166,0.22306148125684302,-9.765032960086428,0.00047151933456147417,0.00014974550310191867,0.7009414854525794,-0.00017841995667271417,-0.04868175246373729,0.00010747076158232807
2024-05-11 03:19:14.815,0.5308248228886481,0.165726272957828,-9.731442205325186,0.0006693639235005538,-9.164028381493773e-05,0.7009463105659558,-0.0011234843869040436,-0.01243342041906418,0.00028016101436211807
2024-05-11 03:19:14.869,0.07843745143298524,0.1578504210159914,-9.825064147749664,0.000509822769656844,0.00036483446313389926,0.7009645496342248,0.008247200227849166,0.017496384698667464,0.001006444358007329
2024-05-11 03:19:14.921,0.12475787142161146,0.1157017386118172,-9.875555612469709,-0.0003383718596557192,0.0009869710093851967,0.7009646043428189,-0.0067533207766400215,0.04153039982965172,-1.312039906240081e-06
2024-05-11 03:19:14.972,0.1747792918398102,0.050812634455142856,-9.799193870500767,-0.000879351096690152,0.0011314713069930803,0.700959243115394,-0.011380955282253438,0.01929054608210565,-0.00029563268751973574
2024-05-11 03:19:15.025,0.5062715783064715,0.1280407521455343,-9.757736327457659,-0.0004321150971646091,0.0010602307776704832,0.7009581526159496,0.010761364863889778,-0.014572166941934346,-5.410329728719456e-05
2024-05-11 03:19:15.080,0.5644599056919523,0.16250372765480764,-9.830895437509131,0.0003040917459694866,0.0004549455259638685,0.7009592017975644,0.0040313792401855935,-0.03790962508686529,6.354394317123768e-05
2024-05-11 03:19:15.134,0.4323735831528411,0.07672878884856411,-9.834026823253028,0.0005805288047446334,-0.00011554175194553932,0.7009658270139968,-0.008109137407757884,-0.024025610769173117,0.000379677926830767
2024-05-11 03:19:15.188,0.12182652648128303,0.07089499344836427,-9.785575886197043,0.0005640872127137646,0.00011692196761502198,0.700968839789857,0.006048976479376237,0.007092755669976994,0.00016221554522506516
2024-05-11 03:19:15.241,-0.011881654226719992,0.09965459011767842,-9.804992936500684,-1.3995916456403188e-05,0.000784631863667008,0.7009807632264407,0.002230027472484727,0.03525730165971997,0.0006545894636163424
2024-05-11 03:19:15.294,0.03102082553593246,0.037536656272719175,-9.81842959230774,-0.0006687492232812233,0.0011162087489235096,0.7009726272199086,-0.009380541934162977,0.02781762127661007,-0.00044898325531338753
2024-05-11 03:19:15.350,0.28966446340979296,0.05230153189459525,-9.82435010276562,-0.000598147563532728,0.0011018683230082204,0.7009770884148894,0.001611698335880651,-0.0023886067043458006,0.0002506934833958251
2024-05-11 03:19:15.409,0.4440313983749586,0.10514957330876194,-9.80491526420165,-4.1007997708884994e-05,0.0007514581469695502,0.700974738790056,0.006068604312640233,-0.025618040344101613,-0.00013148977667543017
2024-05-11 03:19:15.467,0.35659139155302105,0.09708037371644837,-9.773855099019958,0.00040620942356507184,0.0001540426332217012,0.7009779380353172,-0.0039929322222035995,-0.029582192418452766,0.0001815206411257462
2024-05-11 03:19:15.525,0.17839862146803206,0.044837512958479896,-9.813232905720474,0.000409545400621282,8.27945816794969e-05,0.7009766507903666,-0.0019025826143718666,-0.0021260786993049377,-7.13982334623246e-05
2024-05-11 03:19:15.582,-0.06046579223242085,0.09720556692949364,-9.837449340419923,0.0001238770828877989,0.0006628390647365549,0.7009794375925431,0.008114492057136167,0.024557100045409962,0.000146378823196537
2024-05-11 03:19:15.641,-0.04466822580729656,0.06718295561898897,-9.826467092009427,-0.0004334636037918962,0.0011217501028284174,0.7009752997447047,-0.003031651615377309,0.028718752670815747,-0.00022746116677735938
2024-05-11 03:19:15.699,0.13669348196464817,0.010252089636737648,-9.778050613887068,-0.0007428750924230842,0.0010675788685159397,0.7009771964906448,-0.010345745654154836,0.007130262327197319,9.822689944582108e-05
2024-05-11 03:19:15.754,0.3164169504775065,0.048526950254862235,-9.79263028183566,-0.0002848282612577253,0.000839619012022031,0.7009770658527468,0.006675077585895228,-0.019346325812545154,-9.112427834425556e-06
2024-05-11 03:19:15.808,0.3287149131512636,0.08708055888956086,-9.842968357734954,0.00023262574977879244,0.0003490745977623827,0.7009778531165023,0.001007167943848844,-0.028502857065088393,4.466877994494828e-05
2024-05-11 03:19:15.863,0.1680129884568393,0.05747592385739823,-9.81735354225614,0.00034321100516491266,7.505528846803527e-05,0.7009791339368007,-0.0045285446695233645,-0.010917727775096621,7.36618901881121e-05
2024-05-11 03:19:15.916,-0.038652844142592464,0.065353530760128,-9.785570950187633,0.0002455748642189392,0.00043657795031037407,0.700979299397622,0.00735150340303243,0.013050893933117022,4.13127254463501e-06
2024-05-11 03:19:15.969,-0.07880364927091997,0.0619032252572342,-9.799725003739841,-0.0002102330496801484,0.000915218218560969,0.7009796470214934,0.0004177161525150297,0.026434790006461782,1.896193633465879e-05
2024-05-11 03:19:16.024,0.01317486904732108,0.019745939943084552,-9.813487156771268,-0.0006030611949093787,0.0010146201086310375,0.7009765206419825,-0.008418951722215939,0.01385020613405568,-0.00017592664555598177
2024-05-11 03:19:16.078,0.20864900825792046,0.03188261065130295,-9.842952152722926,-0.0004392788049800225,0.0008983593916038247,0.7009822506259195,0.0014121348782388324,-0.007908822482340419,0.00031776977785163594
2024-05-11 03:19:16.132,0.25901562191681315,0.09334518210847928,-9.813657495662074,7.892027700612096e-05,0.0005883462878644199,0.7009812774052326,0.006090211689557376,-0.023373758468456643,-5.058346814037121e-05
2024-05-11 03:19:16.186,0.19328016560951858,0.07470434838855008,-9.773645085789356,0.00031155722316091397,0.0002569817168499198,0.7009835684879476,-0.00265473446921902,-0.01597581355267066,0.00013023972015654988
2024-05-11 03:19:16.241,0.004069143585632488,0.03390976656109738,-9.785334114868157,0.00024364889371691152,0.00030094944809747987,0.7009802067059295,-0.0007043926368493015,0.0031583038473367436,-0.00019000122255300082
2024-05-11 03:19:16.294,-0.07883696988102937,0.04719240417709797,-9.84289133736169,-3.4593047274431825e-05,0.0007232521056068734,0.700982959946479,0.0039034824044715936,0.01984888496215889,0.0001523775064950522
2024-05-11 03:19:16.348,-0.0508060429153422,0.04296556385831208,-9.838750491127117,-0.0004253052353425947,0.000933971295190179,0.7009799774442277,-0.0052373059981988285,0.016966464523093108,-0.00016567248533036616
2024-05-11 03:19:16.401,0.1040026379710673,0.01472469342026453,-9.799865633441929,-0.0005186945222646549,0.0008560791649103832,0.7009817392482356,-0.004848264216845579,0.00039653786702823347,9.304011641956242e-05
2024-05-11 03:19:16.461,0.19588157681053464,0.06412203934022784,-9.783694800950183,-0.00010862574648427889,0.0007155389033133613,0.7009842826303417,0.0077573691642417435,-0.015507191509662533,0.00014738527180508458
2024-05-11 03:19:16.519,0.18004904249857537,0.08609991118966558,-9.801465459284616,0.00022140144554425587,0.0004357751311777025,0.7009856464262836,0.0015702938325319103,-0.01723456194561893,7.979815817263768e-05
2024-05-11 03:19:16.575,0.05766629909743205,0.043515167751560405,-9.807227086118813,0.00021166354670587454,0.0003089513666572505,0.7009853804382596,-0.0038338583329236434,-0.003344864101749891,-1.6225287620098902e-05
2024-05-11 03:19:16.630,-0.061715865173892465,0.0555182988142518,-9.815120510225048,9.883195195788037e-05,0.0006063561907389494,0.700983943964309,0.005120339106272416,0.011647768115907202,-8.130848583206266e-05
2024-05-11 03:19:16.685,-0.0639642700294007,0.06281954330853493,-9.833699370251347,-0.00016345083989204072,0.0009207315898258052,0.700981032750019,0.0013328510621606051,0.016322373161871954,-0.00016165872628241557
2024-05-11 03:19:16.739,0.022008112915607,0.00804329845772989,-9.819660893825157,-0.00040080026719709234,0.0009053871245113055,0.7009824080573616,-0.007201226338526971,0.006217394446592065,7.149614970237026e-05
2024-05-11 03:19:16.792,0.13190909840994142,0.020589176642489146,-9.798607044174373,-0.00023668631549511143,0.00078119522629232,0.7009872687007881,0.00119925018291877,-0.008144381116216846,0.0002706418773566454
2024-05-11 03:19:16.845,0.1537079780725931,0.06716544348123704,-9.79741131917762,0.00011325628167700944,0.000586163283765293,0.700987197485587,0.004514198161909335,-0.015375884020632145,7.379170094374198e-07
2024-05-11 03:19:16.899,0.08894836787909338,0.05257620437465475,-9.81018561840107,0.00019437820968622256,0.000390594850252896,0.7009882781433677,-0.0031694874403793423,-0.007853564838234602,5.951234288306082e-05
2024-05-11 03:19:16.953,-0.02557266212942822,0.018466021570593957,-9.815707895344959,8.08686071546271e-05,0.00045794251613709327,0.7009860145365461,-0.0013496462320190634,0.005103928872473355,-0.0001285752499456515
2024-05-11 03:19:17.005,-0.0606650363186683,0.04135911825875283,-9.807192534052936,-0.00011088699788558228,0.000741493002759521,0.7009858922798868,0.002480390464411098,0.013465564914201032,-5.322852833841476e-06
2024-05-11 03:19:17.060,-0.022899468062040053,0.04248299790685261,-9.807086177019965,-0.0003291182342814923,0.0008460562991954571,0.7009841465309311,-0.0032935036370966525,0.00910192728783192,-9.802265197226507e-05
2024-05-11 03:19:17.114,0.07426667882236594,0.033356752335727796,-9.817961882132986,-0.0003166794939219112,0.000767095053767613,0.7009867192952182,-0.001859292618770936,-0.0026012639301707047,0.00014089770470348677
2024-05-11 03:19:17.170,0.12454048564540941,0.059780293739126085,-9.81706846442959,-1.756101916608011e-05,0.0006694812594153857,0.7009898703223096,0.005795817123096033,-0.011171671328884318,0.00018157115075248631
2024-05-11 03:19:17.225,0.09464830123496278,0.04792965036988056,-9.802695084421476,0.00013072788929359544,0.00046387874349345905,0.7009930129360408,-0.0015348400853824214,-0.010023080672290113,0.00017545286328134863
2024-05-11 03:19:17.279,0.013177094580750611,0.031196807295398626,-9.79004390603654,8.38674630803797e-05,0.0004279315603859723,0.7009924866765684,-0.002344716054661658,0.0002884869803453649,-3.1009223588300754e-05
2024-05-11 03:19:17.333,-0.054954118586534706,0.06825479089044328,-9.774997086706708,2.0354986450586643e-05,0.0006841011432698435,0.7009919375241933,0.005371129021876234,0.009088542679739794,-2.849764044745195e-05
2024-05-11 03:19:17.386,-0.04038023134051655,0.06221679063927725,-9.854121317565266,-0.00012294948450961078,0.0008865669622016773,0.7009894451326794,0.001589164938249987,0.009793835861086776,-0.00013772699931719224
2024-05-11 03:19:17.442,0.02543963916781675,0.02400359330425667,-9.860832520851439,-0.00022445247879272274,0.0008472186073379148,0.7009905387291769,-0.00399891770503361,0.001723642973786565,5.706842503325161e-05
2024-05-11 03:19:17.496,0.08768499758001662,0.015662708648988614,-9.795256518239079,-0.00010735169571902048,0.0007130951033950393,0.7009935121767842,-0.00042035771490999584,-0.007109511504503947,0.00016458543173915433
2024-05-11 03:19:17.552,0.08994362092633705,0.041523522151215346,-9.76408822651161,7.66292280021178e-05,0.0005646516121220724,0.7009955648914675,0.001086010740019401,-0.009393331124169166,0.00011615800675947556
2024-05-11 03:19:17.606,0.03647172267874408,0.05030114168500693,-9.801477939006524,9.241328162008684e-05,0.0004671570175789633,0.7009960806371217,-0.002283473595797544,-0.0032237630361057895,2.7473299337647107e-05
2024-05-11 03:19:17.660,-0.02917078186472744,0.04250701693318983,-9.83830643654463,3.3572319853504634e-05,0.0005930606926540381,0.7009952241458455,0.0018518062545256368,0.005241475529112832,-4.7368011389471964e-05
2024-05-11 03:19:17.716,-0.04440056166570236,0.05014820470119972,-9.824505447363688,-6.539002792108149e-05,0.0007969346788600954,0.7009931990582327,0.002893595056298452,0.008590669716316139,-0.00011119282206512312
2024-05-11 03:19:17.773,-0.0015243798956278481,0.02487745086982614,-9.795834683265939,-0.0001974068632137476,0.000821732005461584,0.700992602011774,-0.003070670052490828,0.004409089351944077,-3.5820916340717e-05
2024-05-11 03:19:17.827,0.054776162723437376,0.012976470290884041,-9.800105821522514,-0.00019090995301118517,0.0007110666524086565,0.7009943763551565,-0.002917751405264346,-0.003339058781853536,9.523090398593786e-05
2024-05-11 03:19:17.881,0.07785080173045547,0.03996686820098173,-9.819858892995114,-2.3160130685112426e-05,0.0006038770314167701,0.7009968433860716,0.0017797080496233981,-0.007761376070727087,0.00013919194560974954
2024-05-11 03:19:17.934,0.049558857094242785,0.05381849295134364,-9.816251973967208,6.176904238070433e-05,0.0005096849379363151,0.7009982318006439,-0.000218421731023194,-0.005068350623464551,7.78125506999581e-05
2024-05-11 03:19:17.990,-0.0031706141811972386,0.04995143225763641,-9.798179101471664,2.7637931163591905e-05,0.0005414430529915601,0.700998010516106,-8.314167569578263e-05,0.001862977706052938,-1.258562081568338e-05
2024-05-11 03:19:18.045,-0.03243481152696804,0.048133619098980375,-9.799059853188645,-3.6980959310961216e-05,0.0007101912535026948,0.7009980559839676,0.00288833248700475,0.006625712226760956,4.649758646632949e-06
2024-05-11 03:19:18.099,-0.014825560402414279,0.024604170098493177,-9.817918575635323,-0.00015961752997679766,0.0007849541375742989,0.7009961140187099,-0.0014019752110585408,0.005571399510071346,-0.00010942756936476532
2024-05-11 03:19:18.152,0.029796896836966753,0.00467706027461209,-9.82600701867942,-0.00021580235895360191,0.0007082447975891321,0.7009972894374994,-0.0037537222309282966,-0.0006128207738412912,6.17784593194933e-05
2024-05-11 03:19:18.205,0.06372010709335985,0.028570001366424774,-9.812925103624183,-9.118766309544711e-05,0.000633634676685373,0.7009984806002173,0.001462733108133841,-0.005622528741034195,6.71817071533663e-05
2024-05-11 03:19:18.259,0.05306431303099027,0.05473578689041302,-9.796854202039945,2.821535063933225e-05,0.000551106445716346,0.7010002612944947,0.001092026504171686,-0.005702256033306985,0.00010068702911677405
2024-05-11 03:19:18.313,0.014398716113456838,0.06288953474327803,-9.785296582570181,5.459040571953047e-05,0.000551190244292073,0.7010007717132694,0.0007547257858254515,-0.0007371541224698287,2.9268523116516818e-05
2024-05-11 03:19:18.368,-0.02248500957261318,0.057468506382760756,-9.809832088368537,8.635222878155384e-06,0.0006618928138428556,0.700999793656494,0.001793192641042463,0.0044465081510561225,-5.372891778657002e-05
2024-05-11 03:19:18.421,-0.020680149482359293,0.0248625224245003,-9.844979362474803,-0.0001020021811532583,0.0007460583549282808,0.7009975232908663,-0.0007960140074405507,0.005503160800038698,-0.00012765679255695778
2024-05-11 03:19:18.474,0.012192386987648917,0.020192599318271907,-9.822975470710778,-0.00019305199368133217,0.000717010348420355,0.7009977096267905,-0.003411845240248161,0.0017243925748235966,7.455298687376318e-06
2024-05-11 03:19:18.529,0.045586732193695294,0.0284444829180896,-9.791991208315313,-0.00012562796603672003,0.000665310777166797,0.7009983135377771,0.0004737034297327326,-0.0033653618080301587,3.361928903535586e-05
2024-05-11 03:19:18.583,0.054061935915958446,0.0568288376891094,-9.796084463968587,2.3096801900199005e-05,0.0006318111533346355,0.7009989049266584,0.003303256765770577,-0.0051258452615685415,3.622880249279655e-05
2024-05-11 03:19:18.636,0.027052557959184206,0.03578115714059536,-9.815195109159731,6.306171681108232e-05,0.0005903486409446275,0.7010000641413674,-2.2573099515501548e-05,-0.002303365114479678,6.513684686270729e-05
2024-05-11 03:19:18.689,-0.008041952837645161,0.021618747515260592,-9.816820360107497,-1.7203391385967978e-05,0.0005904715778574581,0.7010002457188877,-0.0022862348385353694,0.002254144933930105,8.348019976104169e-06
2024-05-11 03:19:18.745,-0.017351990135293514,0.012793062280156952,-9.804991166987875,-0.00013196096709281824,0.0006400850099466061,0.7009982340799048,-0.00188240099414552,0.004633059064556997,-0.00011375081921529663
2024-05-11 03:19:18.797,-0.0004268856880174297,0.036817422075952844,-9.804745484104362,-0.00019415469352791293,0.0006790515516387469,0.7009979983007525,-0.0006815428471144144,0.0028554838970269963,-1.3153215558478642e-05
2024-05-11 03:19:18.851,0.03100920433150833,0.05779967630721304,-9.818923845174613,-0.00012779236192180524,0.0006988104625490541,0.7009981467877229,0.0024471195114952075,-0.0012971380232187591,1.047890315162768e-05
2024-05-11 03:19:18.903,0.04736030542895187,0.04579151373817148,-9.822062960895513,-1.8313527299188775e-05,0.0006680153380315681,0.7009978367846316,0.00225956494049014,-0.0039482647764264925,-1.5403604626089784e-05
2024-05-11 03:19:18.958,0.03326833281684648,0.021038965770695587,-9.803666174423904,1.226365659150317e-05,0.000588510230059517,0.7009991342351817,-0.0013570855686295179,-0.003125357091830761,7.145684146511196e-05
2024-05-11 03:19:19.011,0.006421719660017618,0.010395712860912946,-9.79178110195246,-5.576387433091658e-05,0.0005376506968316081,0.7009998448290728,-0.003366702057792061,0.0004566591585011586,3.7250150721405447e-05
2024-05-11 03:19:19.065,-0.014429315421045596,0.026765415898083046,-9.804596286234995,-0.00012780354223339353,0.000586498565266527,0.700998588375625,-0.000685306285136164,0.003413426540487965,-7.051461593245213e-05
2024-05-11 03:19:19.119,-0.009734495646740195,0.053428249893625504,-9.822660311166498,-0.0001561977001273091,0.0006757881630958173,0.7009965921148418,0.0016937550678670149,0.003343251474276985,-0.00010994346652083684
2024-05-11 03:19:19.174,0.011691861182638824,0.053681951791544405,-9.82343256380869,-0.00012071059061683441,0.0007200595532831086,0.7009962728171052,0.0022536997790808615,0.00026785087288541107,-1.566633974553573e-05
2024-05-11 03:19:19.228,0.03430086324776468,0.03805724755920738,-9.810808859438401,-6.590038705244764e-05,0.0006737504325452266,0.700996059090302,0.00026505351191823205,-0.0028579175000260633,-1.2083475683767227e-05
2024-05-11 03:19:19.282,0.031863270247388366,0.018607565132914276,-9.79314371994666,-3.0137599617510063e-05,0.0005915463187223268,0.7009960669524337,-0.0012848000370463072,-0.0033477880334889395,-1.0317194386959394e-06
2024-05-11 03:19:19.334,0.011455635025632469,0.048776601991167574,-9.78739671487619,-8.131936527088267e-05,0.0005130004348820399,0.700996606581118,-0.00366246855678059,-0.0008055099608416132,2.729380196473087e-05
2024-05-11 03:19:19.387,-0.010405439281008821,0.06346738726777326,-9.82927335305797,-7.843599168825684e-05,0.0005885288453523704,0.700997809640141,0.002200026844977729,0.002073742951343601,6.929454923495732e-05
2024-05-11 03:19:19.441,-0.011277115437850555,0.0632615358847302,-9.833562558971634,-4.528090675643539e-05,0.0007345285782262412,0.7009962097157566,0.005039668249531136,0.0032351600770634094,-8.518891735923833e-05
2024-05-11 03:19:19.498,0.006366713857919181,0.05268614299758962,-9.806159138573225,-4.342198477972357e-05,0.0007825419497939458,0.7009954027729791,0.001399342849481242,0.0013175117466221373,-4.3735599542088434e-05
2024-05-11 03:19:19.548,0.029338005923911604,-0.01497436971292565,-9.796619415630037,-8.418411773978287e-05,0.0006899759794254402,0.7009954487245001,-0.00375833986109756,-0.0014976324335239425,-1.5774143882851094e-06
2024-05-11 03:19:19.601,0.035141846878788956,-0.01574892592318801,-9.812672622086197,-0.00011127441962456748,0.0005812141961230515,0.7009953160225667,-0.0038224515145982435,-0.002343003174089566,-1.1394642994487947e-05
2024-05-11 03:19:19.654,0.01930579506213158,0.020707284346447325,-9.815085026836641,-0.00011415035732008186,0.0005236939146055231,0.7009956381194853,-0.0016949067753287488,-0.0015602145564592627,1.6440104356837216e-05
2024-05-11 03:19:19.707,0.008209739027056084,0.10022334678609326,-9.784245212565637,-3.1352043524632595e-05,0.0006375890300981601,0.7009963476560074,0.0055555352910656,0.0009274110558202501,4.4285469325632896e-05
2024-05-11 03:19:19.760,-0.00474274692902762,0.07886526503292807,-9.812591503893803,2.65687710258236e-05,0.0007755290897042208,0.7009948058845068,0.005520147820688707,0.0023108229546203018,-8.131699511293276e-05
2024-05-11 03:19:19.813,0.00504545763158696,0.02436561365132565,-9.839951152133281,-5.2541495162594e-05,0.0007630773003843032,0.7009934292746781,-0.0026058505599122557,0.0018629891360471523,-7.986679985159923e-05
2024-05-11 03:19:19.867,0.018992715543503822,-0.040931859621081965,-9.821571967657496,-0.00014973059296981902,0.0006535202264948963,0.7009935975249817,-0.005844440365061201,-0.00040014295922360916,3.5170400203991874e-06
2024-05-11 03:19:19.920,0.0315592843565791,0.025940666723976956,-9.793167841200196,-0.00012203678881302166,0.0006037578180935433,0.7009933816386145,-0.0006053061323110214,-0.0021960893165795248,-1.309382165940599e-05
2024-05-11 03:19:19.972,0.02687773159899493,0.038977538078540465,-9.793998022103777,-3.59304274523826e-05,0.0006209258426253931,0.700993348721323,0.002937718203815742,-0.00192465294047638,6.043290155084442e-07
2024-05-11 03:19:20.026,0.010361415098268897,0.07418059733571908,-9.812862984411407,3.613531633770759e-06,0.0006574969819260091,0.7009939041173281,0.002153489165454697,-6.553278242833505e-05,3.308316841189327e-05
2024-05-11 03:19:20.078,-0.00026084629678513284,0.026861578223525556,-9.819691627468659,-3.566220402375022e-05,0.0006793662905040414,0.7009941338819379,-0.0005072027468170016,0.0017251471620873644,1.2472255836609891e-05
2024-05-11 03:19:20.130,0.0015390361007806665,0.0018499838037191203,-9.809538908035973,-0.0001059696104686031,0.0006710626352029359,0.7009926612872951,-0.0022384228844804428,0.001734495028368439,-8.444461799607523e-05
2024-05-11 03:19:20.182,0.015805329121196785,0.010676553067630896,-9.805135428847832,-0.0001506991730965141,0.000645548125171154,0.7009922482437688,-0.0019913941699786467,0.0005263500332108754,-2.4883955526295775e-05
2024-05-11 03:19:20.234,0.02419371438600816,0.03258418173420404,-9.814648050305387,-0.00011750683643084674,0.000638043532620188,0.7009921345134758,0.0007364463408261128,-0.0011447870594681125,-5.910315137612179e-06
2024-05-11 03:19:20.286,0.02571842512364074,0.052535687842806725,-9.81729496206898,-4.4103717769248207e-05,0.0006351881582634652,0.7009924399949922,0.0020138803466367167,-0.0021396480061090205,1.879676127821981e-05
2024-05-11 03:19:20.338,0.020079655167919635,0.033168544213986885,-9.80360964314631,-4.507228840764721e-05,0.0006120782493086889,0.7009926011273228,-0.0006756292235510504,-0.000632088775401848,8.396545722164824e-06
2024-05-11 03:19:20.391,0.002156292728627494,0.026603137494637618,-9.796344954880334,-7.979944556695838e-05,0.0006123762737666807,0.700992960159679,-0.000982305670207237,0.000982248470130815,1.9404163733442148e-05
2024-05-11 03:19:20.444,0.0021751554858425877,0.009807800836640498,-9.808287210555143,-0.00011102482611100439,0.0006401762328581559,0.700991984052467,-0.00011122540936271618,0.001668572909379757,-5.4617447067227906e-05
2024-05-11 03:19:20.496,0.00920073968654885,0.032060801027598,-9.821648056708229,-0.00013002009002797025,0.0006566979396659384,0.7009916738528983,-7.860021300484857e-05,0.001003925849785197,-1.729821102618231e-05
2024-05-11 03:19:20.548,0.019540900829721063,0.03225265092227124,-9.820733963644662,-0.00010936707930459567,0.000655394087783118,0.7009913756180705,0.0005526131564742863,-0.0006163047166227258,-1.631386669395952e-05
2024-05-11 03:19:20.600,0.025868330310733944,0.03237399861000113,-9.809142816563805,-8.575246355400811e-05,0.0006393250538242298,0.700991204184612,0.00022308376425517315,-0.0011205476251288904,-9.55983944988212e-06
2024-05-11 03:19:20.654,0.016801163091100586,0.011977885992079685,-9.797913860815012,-0.00011752918591694946,0.0005744490884452239,0.7009908693569072,-0.0027255776206772868,-0.0009597017185809945,-2.1301248456382006e-05
2024-05-11 03:19:20.706,0.012549294337646327,0.03380709634662544,-9.79878287786811,-0.00013970213173814777,0.0005627815496319519,0.7009904804938469,-0.0009596658034968129,0.00028887721758594226,-2.2516513452332313e-05
2024-05-11 03:19:20.759,0.003960568799676143,0.05364872879294925,-9.813082497131818,-0.00012006611335783536,0.0006365459785486605,0.7009902411355434,0.0026284863857200004,0.001553674428929955,-1.1034020881269536e-05
2024-05-11 03:19:20.813,0.0050486655244080724,0.0547925378535997,-9.820930100169559,-9.656697969752594e-05,0.0007072780616813009,0.7009895180394503,0.0026536784367888477,0.0013588395355845135,-3.79402921908095e-05
2024-05-11 03:19:20.866,0.015337950741460065,0.0269911726631226,-9.814922790451849,-0.00014482067021542557,0.0006633252357185501,0.7009892345032153,-0.0026089352675188774,9.91710797890037e-05,-1.8386569309552547e-05
2024-05-11 03:19:20.921,0.024002247775121405,-0.00973280606714428,-9.807710069983067,-0.00015434623570784382,0.000608935983993148,0.7009886869367142,-0.001796768816078961,-0.0012844727595976882,-3.2641395268642044e-05
2024-05-11 03:19:20.974,0.023453877577271392,0.05413985415780213,-9.789171256825576,-7.678941165824239e-05,0.0006405581017084971,0.7009881984613766,0.003099138426623149,-0.0012725879818688522,-2.479006378401772e-05
2024-05-11 03:19:21.027,0.012480403016273551,0.05491201943166261,-9.816872048507934,-3.7394464591992544e-05,0.0006704144283092957,0.7009879458643776,0.0019609802287189632,-0.0002529127498493202,-1.2372993352559134e-05
2024-05-11 03:19:21.081,0.006723912666848614,0.029445969687197867,-9.82792088647935,-7.96653374160689e-05,0.0006568115565972968,0.7009871987765655,-0.00158725343224765,0.000797189863003649,-4.328207587673473e-05
2024-05-11 03:19:21.134,0.005641809087012154,0.006787043681063943,-9.807407948954213,-0.00015777349693892737,0.0006309840916903586,0.7009866932253233,-0.0029523598127188543,0.0014533247595548,-3.0671387278350324e-05
2024-05-11 03:19:21.188,0.009087386797928332,0.03187153421144194,-9.791581147005186,-0.0001379996582500736,0.0006642639850417633,0.7009862290538117,0.0014972527177824627,0.00039491750065318156,-2.460736978462507e-05
2024-05-11 03:19:21.241,0.022866016734810857,0.0754481451256616,-9.802152030254012,-5.612522821297787e-05,0.0007248800838961853,0.7009861444793873,0.004035274639195064,-0.0005665202712176973,-8.334801684627955e-07
2024-05-11 03:19:21.304,0.021185406660482225,0.030949154810251768,-9.846314413322103,-2.069771381008798e-05,0.000711686940551976,0.7009856413668483,0.000640726382959235,-0.0013697425088925097,-2.7624706581743234e-05
2024-05-11 03:19:21.357,0.019510507823232038,0.004468888543321341,-9.823369233876624,-8.337572279852852e-05,0.0006313566166083007,0.7009854369565661,-0.004040425952256755,-0.0005341338992989172,-1.536216972363023e-05
2024-05-11 03:19:21.412,0.0073423433073489495,0.0068612273859610115,-9.777373635539734,-0.00011966005225417348,0.0006063059102946894,0.700985625583139,-0.0017374961137525157,0.00030277289814875034,9.128138828455335e-06
2024-05-11 03:19:21.467,0.006321101245600229,0.0523401759588402,-9.785617236917393,-0.00010108947639899933,0.0006722118629700615,0.7009861986259665,0.002377709906229203,0.0013594055219335072,3.4401243160998306e-05
2024-05-11 03:19:21.522,0.007054382359994575,0.036151247770567115,-9.829673728613779,-8.185580284035451e-05,0.0007215607833093029,0.7009854240687566,0.001932419736617285,0.0008684559908717843,-4.148504780030301e-05
2024-05-11 03:19:21.575,0.01911539441309073,0.02590517810508701,-9.841175561863972,-9.236113362800988e-05,0.0007048175598012409,0.7009850402796677,-0.0007691436324129602,-0.00018308038859009097,-2.232068907647067e-05
2024-05-11 03:19:21.628,0.021019201724169042,0.006766427187931282,-9.809341281395028,-9.509549525387111e-05,0.0006655809224460558,0.7009847886920084,-0.0011781672926147384,-0.0010426413080131347,-1.541052398074759e-05
2024-05-11 03:19:21.681,0.01971594992515223,0.009028017538885989,-9.7838823693078,-0.000139627614517731,0.0005898308382384166,0.7009849992196476,-0.0033943616276019863,-0.000912269475336291,8.592788934549381e-06
2024-05-11 03:19:21.738,0.012490063367266822,0.037522040238808556,-9.795139264732503,-0.00015854463374422818,0.000570578514779108,0.7009846145908896,-0.0010794587389154262,-1.8796189220725786e-05,-2.245535808353412e-05
2024-05-11 03:19:21.793,0.0069134863067120845,0.07394636492174417,-9.821287448624465,-0.00010613352782862401,0.0006525461074900887,0.7009847641376108,0.003793449905223868,0.0008687230330955602,1.1719420337921802e-05
2024-05-11 03:19:21.848,0.007761821184109659,0.05693918813122567,-9.825172833088958,-6.397814159660185e-05,0.0007365849561114968,0.700984424645793,0.0035589768199008245,0.0012153614191002403,-1.5538206156340387e-05
2024-05-11 03:19:21.901,0.011956565766086268,0.006200678934579394,-9.809261280789668,-9.770691665299085e-05,0.0007006302669892692,0.7009840205658043,-0.0019703165105507173,-7.995770883430758e-05,-2.4662000318891742e-05
2024-05-11 03:19:21.954,0.0228935434091978,0.0001451776471806102,-9.80339264499673,-0.00015234576176889264,0.0006405749058184705,0.7009836530073338,-0.003242588048381097,-0.0001811729862872894,-2.3710743015796308e-05
2024-05-11 03:19:22.009,0.015443884052236715,0.013626328598892191,-9.811450261265074,-0.0001761540964664033,0.0006098598913911497,0.7009833631568796,-0.0015404020224054858,-0.00020864498380432375,-1.7663358861607453e-05
2024-05-11 03:19:22.062,0.013746275255575275,0.03438314788979777,-9.809491317454672,-0.0001892186750958072,0.0005920361882855604,0.7009827082547251,-0.0008724387720287044,-0.00014214691276860826,-3.750616033098455e-05
2024-05-11 03:19:22.117,0.013420633921778802,0.06051458336940996,-9.801762085510543,-0.0001263804846324731,0.0006551743137297646,0.7009833483429725,0.0035629216946782413,3.92239864317303e-05,3.9021250102034526e-05
2024-05-11 03:19:22.170,0.013043698174237449,0.05170283125283626,-9.808766655393784,-9.616092569200898e-05,0.0007280968676142265,0.7009825636590973,0.002906801410569612,0.001232914680103516,-4.1088805303186816e-05
2024-05-11 03:19:22.226,0.004312003340883109,0.02909715829485322,-9.817517641285994,-0.00013821572040672046,0.0007016360747205895,0.7009820329546369,-0.0019416265350782737,0.0004243246776295846,-3.1621499459133334e-05
2024-05-11 03:19:22.283,0.021208006141871998,-0.013309957448564804,-9.817564114280259,-0.00022112206363622392,0.0006096959317849437,0.7009812231698058,-0.004942989543777307,-0.00029816878121289355,-5.007465700878161e-05
2024-05-11 03:19:22.335,0.018663560217932383,0.030838951024149193,-9.803610667601093,-0.00017161667545637684,0.0006471984163348041,0.7009805522056324,0.002463812230908573,-0.00031826573958851465,-3.5529201579318557e-05
2024-05-11 03:19:22.393,0.013994725722809057,0.08056996211263531,-9.792894125508516,-8.806587063141218e-05,0.0007192195113190742,0.7009797731101672,0.004402911023211796,-0.0002881566129947988,-3.949982684594958e-05
2024-05-11 03:19:22.448,0.013297390824443084,0.053315310847812006,-9.823287463758456,-6.81094828125348e-05,0.0007262658358288617,0.7009798913801603,0.0007668699685562943,-0.0003585456266887909,7.378149044492594e-06
2024-05-11 03:19:22.503,0.013800490323122352,0.001301899403196881,-9.823430794295883,-0.000130806129410418,0.0006963872013595092,0.7009783985266713,-0.002626284949001283,0.0009055754541271859,-8.616295443277484e-05
2024-05-11 03:19:22.558,0.0041189091246454515,0.007145326167089921,-9.80202993387028,-0.0002139583358987968,0.0006434917837833778,0.7009780829485978,-0.003855237594357455,0.0008225475296483547,-2.10431005991884e-05
2024-05-11 03:19:22.614,0.01601038136112615,0.016389141612506562,-9.800065029595682,-0.0002199187924489558,0.00063505397681956,0.7009781161399969,-0.00040662552192719556,-7.3581479114662e-05,1.4739778434540361e-06
2024-05-11 03:19:22.667,0.019714125547079228,0.0738335007046037,-9.819977077824221,-0.00014844537941477017,0.0006874148339836264,0.7009774994332184,0.003507116334488813,-0.0005103500941433137,-3.142438495206153e-05
2024-05-11 03:19:22.720,0.017337561350701157,0.05674069874364591,-9.822961221476065,-9.079277986669869e-05,0.0007280800869480228,0.7009771234049789,0.002784903490013143,-0.00045646461712154875,-1.8371236813956676e-05
2024-05-11 03:19:22.774,0.013664852049934567,0.004121668493780803,-9.800897631937843,-0.00010866299957787975,0.000696511983152551,0.7009763564269905,-0.0013949057562567132,-0.0003995077344781919,-4.448009690374191e-05
2024-05-11 03:19:22.829,0.012458205241621445,0.0039704520464939495,-9.791179560730088,-0.00017641486184663226,0.0006509014007972121,0.7009761908530323,-0.003211654174771572,0.0005985446818042277,-1.2152653821973733e-05
2024-05-11 03:19:22.884,0.005317758757801463,0.012956106569054365,-9.808325208514383,-0.00022649765886586463,0.0006322469805685418,0.7009759219131378,-0.0019517736244673918,0.0008721080601188458,-1.655078525624393e-05
2024-05-11 03:19:22.939,0.012652890916481668,0.03733604062305186,-9.826228766573903,-0.00021800027648421238,0.0006612316183700111,0.7009757595504321,0.0010551148815198443,0.0005885953234632689,-7.98163813899506e-06
2024-05-11 03:19:22.994,0.017024085273928152,0.0569052701877619,-9.823407697497128,-0.00016064569939703197,0.0006965771571424384,0.7009747283896386,0.0026272661650579244,-0.0005998717192545922,-5.5452965792587096e-05
2024-05-11 03:19:23.046,0.022270923897779786,0.048996029582878096,-9.805824141859048,-0.00015125796119462852,0.0006838217341774832,0.7009739242959013,-8.981425521755346e-05,-0.000627119280393734,-4.5324131909231905e-05
2024-05-11 03:19:23.102,0.012484919589485397,0.010360594100282772,-9.794149641411721,-0.00017271936187820562,0.0006390139552328547,0.7009734015991483,-0.0018685855871336042,-0.0006765073706625606,-3.123432745629617e-05
2024-05-11 03:19:23.159,0.014638634759091418,0.012164670314143457,-9.802225977262925,-0.0001897998273439641,0.0006327648113456593,0.7009738528168487,-0.0006624968324570958,0.0003006535010756811,2.479782157178852e-05
2024-05-11 03:19:23.217,0.006010628099921594,0.050423421422862914,-9.816793538018624,-0.00020201877580758128,0.0006432570778554359,0.7009727643771346,-5.4346913900680127e-05,0.0006419059098111196,-6.091792743945024e-05
2024-05-11 03:19:23.273,0.01116610873565254,0.03573531042435129,-9.81664201184293,-0.0001682937286635722,0.0006983709177049357,0.7009719007086984,0.0025074530667006365,0.0006266303442695243,-4.5957990502897266e-05
2024-05-11 03:19:23.327,0.014137111406128947,0.05507153793946055,-9.795538150172266,-0.0001384764872732128,0.0007385238807695387,0.7009717038672005,0.0019764631774438664,0.0003094197993328148,-8.997786118376223e-06
2024-05-11 03:19:23.381,0.017277549338993836,0.007424798536473937,-9.824158902250135,-0.00015930086444093747,0.0006864182681124046,0.7009714872561529,-0.0020550432980426143,-0.0009025591352269319,-1.4436642573015375e-05
2024-05-11 03:19:23.433,0.02259111915482335,0.03442067025154294,-9.810546692146099,-0.0001303218311697856,0.0006873086129595248,0.7009712493086401,0.0008516731122247946,-0.0007871449909157852,-1.2668382374978162e-05
2024-05-11 03:19:23.489,0.011670842800869564,0.051387688396361555,-9.809805080015158,-0.00010800735432303895,0.0007063803162262887,0.7009709705594617,0.0011713353563141892,-8.160905960190227e-05,-1.4500706597342249e-05
2024-05-11 03:19:23.542,0.008836432778958746,0.02950250769505241,-9.809072594845013,-0.00010735914329491657,0.0007255859820597777,0.7009710216039264,0.000556994671267492,0.0005297178313073877,3.494665576758249e-06
2024-05-11 03:19:23.596,0.009116764083624832,0.029507544112673728,-9.808880463006995,-0.00013382361609844996,0.0007174146111525038,0.700970001021912,-0.00098404832019166,0.0005089003339307656,-5.8137356833061115e-05
2024-05-11 03:19:23.651,0.01438521851354958,0.006660926876192894,-9.813168178804613,-0.00016667694777986657,0.0006979220002618258,0.7009694965112783,-0.0014837591606622585,0.000365079506830884,-2.967779213665499e-05
2024-05-11 03:19:23.705,0.014368762276358901,0.032166712044386835,-9.817846025610205,-0.00017680599923131855,0.0006822887668236142,0.7009694432586114,-0.0007272927759053448,-0.0001619743374144762,-3.7324275284119858e-06
2024-05-11 03:19:23.758,0.0181772632408507,0.032483154703731754,-9.812325331914618,-0.00016389415205415964,0.0006630458155099342,0.7009691229799934,-0.00017119362888522603,-0.000910995195607408,-1.8346091393976158e-05
2024-05-11 03:19:23.810,0.019323469800475425,0.03239513940406708,-9.800109733077141,-0.0001431666368019414,0.0006686859082332398,0.7009695433851605,0.0007494349614024311,-0.00042026664903165446,2.419592998238272e-05
2024-05-11 03:19:23.862,0.008545181620990147,0.05427385976586443,-9.799669031255766,-0.00013361870791591123,0.0006943437967817817,0.7009684802959685,0.0009918307380287967,0.00046422388443369505,-5.859799388365622e-05
2024-05-11 03:19:23.914,0.0075145966161996565,0.029476720611098923,-9.81186982206501,-0.00012934581420257928,0.0007130131662897158,0.7009680799516493,0.0006453746631027734,0.00041277852389367284,-2.1747455662208588e-05
2024-05-11 03:19:23.967,0.014275768130084803,0.009357968780286172,-9.820098708546688,-0.0001700781348777856,0.0006858110681953953,0.7009673378304313,-0.0019246857323705143,0.0003660538213155469,-4.3415525008051746e-05
2024-05-11 03:19:24.022,0.014389246915503437,0.028701389761498487,-9.816421102138724,-0.0001873672083841293,0.0006809421157413425,0.7009675784585775,-0.0006297452515095454,0.00034586755318078284,1.2984524322783492e-05
2024-05-11 03:19:24.074,0.01443690891487392,0.009266990278811773,-9.808821324026317,-0.00016710535365304646,0.0006785728310846317,0.7009671612966663,0.0005116068024933703,-0.0006357149341008315,-2.3059088483703255e-05
2024-05-11 03:19:24.128,0.020978213596603176,0.03413218384364957,-9.803248848798042,-0.00018139928566411403,0.0006378237153517561,0.7009687418713828,-0.0015503764888447511,-0.0007616693208891281,8.700142001121164e-05
2024-05-11 03:19:24.181,0.013158138381485862,0.0546621313574859,-9.802026301712411,-0.00020343810808010144,0.000633945703815585,0.7009674478867514,-0.0007374076424442213,0.0005072887537157507,-7.308549060568692e-05
2024-05-11 03:19:24.232,0.0056172247074264825,0.03626280859517563,-9.808536804993285,-0.0001714415842038954,0.0006752796446634333,0.7009668920850199,0.002071756205873467,0.0002820120591277422,-2.921147842337332e-05
2024-05-11 03:19:24.285,0.014120867882685883,0.05504891062184988,-9.816380962137666,-0.00014785677902120833,0.0007071104239038065,0.7009656764717439,0.0015653553256951814,0.0002467476049836781,-6.661589259412802e-05
2024-05-11 03:19:24.337,0.015517748308503644,0.007020222718325284,-9.816828555745765,-0.00016919525032962424,0.000694848660926992,0.7009654093454433,-0.000952533086207123,0.0002484948172197662,-1.5857021812564447e-05
2024-05-11 03:19:24.390,0.013142030469380735,0.009214516995854015,-9.813105780195077,-0.0002022832820405464,0.0006691460189379004,0.7009645757057937,-0.001664566096380684,0.00019448732248984594,-4.8288201833466894e-05
2024-05-11 03:19:24.443,0.01438907634546456,0.013762525151165288,-9.807369671598213,-0.00024089217514407414,0.0006398018536775724,0.7009641027652829,-0.001924180037053934,0.00024540564170896735,-2.8202834345601338e-05
2024-05-11 03:19:24.496,0.013705129353423513,0.05378092500117871,-9.800288267606216,-0.0002615675356842307,0.0006289817456983101,0.7009636831257274,-0.0008931889567932621,0.00027102698366964655,-2.422867958388671e-05
2024-05-11 03:19:24.548,0.01375304992212543,0.06165291268210993,-9.802829939923877,-0.00020458178040445708,0.0006888434731428904,0.7009633035726955,0.0033041309737172272,0.0001099235298046952,-1.820793740337599e-05
2024-05-11 03:19:24.600,0.014922800183441434,0.0549548943243718,-9.816125779764342,-0.00018491596671012535,0.0007127430554977645,0.7009621523164175,0.0012311742038496783,0.00013038064169152314,-6.332736816535005e-05
2024-05-11 03:19:24.652,0.01394524085455827,0.029582983966118484,-9.816071949322085,-0.0001894720043498378,0.000711012685991513,0.7009618818004858,-0.00017848152257673994,7.837502291291398e-05,-1.5329221537292392e-05
2024-05-11 03:19:24.705,0.014133738647505773,0.02953227327244036,-9.798004385364965,-0.00019675867334696903,0.0007035621070295902,0.7009618243920762,-0.0004167743881064695,-8.24382475232522e-06,-3.635410524729361e-06
2024-05-11 03:19:24.757,0.014266030614154095,0.01025871255410402,-9.825635514122052,-0.00020657481369895197,0.0006949157063298429,0.7009613463150324,-0.0005224488874338889,2.855634864003722e-05,-2.7316895967077657e-05
2024-05-11 03:19:24.810,0.013448956540416198,0.048043387042509635,-9.822851139152974,-0.00017302484313790883,0.0007273760110585976,0.7009610340178306,0.0018672598532098682,-1.4669192081236372e-05,-1.565662466927448e-05
