Timestamp,Linear_Acceleration_X,Linear_Acceleration_Y,Linear_Acceleration_Z,Orientation_X,Orientation_Y,Orientation_Z,Angular_Velocity_X,Angular_Velocity_Y,Angular_Velocity_Z
2024-04-19 19:08:22.263,1.982346619290802e-05,-0.006439554921326529,-9.810417610843388,0.00048049169838662446,1.4683452738127647e-05,8.835169544312355e-10,-0.0,0.0,-0.0
2024-04-19 19:08:22.318,1.9523389621359003e-05,-0.0064988805303096,-9.810417424578882,0.00048049169838662446,1.4683452738127647e-05,8.835169544312355e-10,-0.0,0.0,-0.0
2024-04-19 19:08:22.374,1.937673023258607e-05,-0.006529725814281482,-9.810417424578882,0.00048049169838662446,1.4683452738127647e-05,8.835169544312355e-10,-0.0,0.0,-0.0
2024-04-19 19:08:22.431,1.9198051835668087e-05,-0.0065494454319939555,-9.810417424578882,0.00048049169838662446,1.4683452738127647e-05,8.835169544312355e-10,-0.0,0.0,-0.0
2024-04-19 19:08:22.495,1.8983697267317795e-05,-0.006564945903985304,-9.810417424578882,0.00048049169838662446,1.4683452738127647e-05,8.835169544312355e-10,-0.0,0.0,-0.0
2024-04-19 19:08:22.551,1.89633386201841e-05,-0.0065791276087217195,-9.810417424578882,0.00048049169838662446,1.4683452738127647e-05,8.835169544312355e-10,-0.0,0.0,-0.0
2024-04-19 19:08:22.608,1.8798822405131248e-05,-0.006591168681354982,-9.810417424578882,0.00048049169838662446,1.4683452738127647e-05,8.835169544312355e-10,-0.0,0.0,-0.0
2024-04-19 19:08:22.714,1.8718721149976777e-05,-0.006602599528547072,-9.810417424578882,0.00048049169838662446,1.4683452738127647e-05,8.835169544312355e-10,-0.0,0.0,-0.0
2024-04-19 19:08:22.799,1.86723310604122e-05,-0.006608461539944714,-9.810417424578882,0.00048049169838662446,1.4683452738127647e-05,8.835169544312355e-10,-0.0,0.0,-0.0
2024-04-19 19:08:22.855,1.8627985735108332e-05,-0.0066128241129734975,-9.810417517711135,0.00048049169838662446,1.4683452738127647e-05,8.835169544312355e-10,-0.0,0.0,-0.0
2024-04-19 19:08:22.910,1.8662060876197335e-05,-0.006622621234910393,-9.810417517711135,0.00047940763908953547,1.4836232403967685e-05,5.050534479722282e-10,-4.33623765993031e-05,6.111178407876257e-06,-1.8704997429925138e-08
2024-04-19 19:08:22.967,1.416343810463205e-05,-0.006662485704562956,-9.810418355901412,0.00047940763908953547,1.4836232403967685e-05,5.050534479722282e-10,-0.0,0.0,-0.0
2024-04-19 19:08:23.024,2.3848963981105686e-05,-0.006461153373104686,-9.810418169636907,0.00047940763908953547,1.4836232403967685e-05,5.050534479722282e-10,-0.0,0.0,-0.0
2024-04-19 19:08:23.080,1.8600126599212208e-05,-0.0066035663668438695,-9.810417610843388,0.00047940763908953547,1.4836232403967685e-05,5.050534479722282e-10,-0.0,0.0,-0.0
2024-04-19 19:08:23.136,1.846603475684542e-05,-0.006665801085441857,-9.810417517711135,0.00047940763908953547,1.4836232403967685e-05,5.050534479722282e-10,-0.0,0.0,-0.0
2024-04-19 19:08:23.203,1.8552567133995793e-05,-0.006690913096985018,-9.810417424578882,0.00047940763908953547,1.4836232403967685e-05,5.050534479722282e-10,-0.0,0.0,-0.0
2024-04-19 19:08:23.262,1.8569391719365364e-05,-0.006702590644603248,-9.810417424578882,0.00047940763908953547,1.4836232403967685e-05,5.050534479722282e-10,-0.0,0.0,-0.0
2024-04-19 19:08:23.448,1.8574311339398414e-05,-0.006710029219516795,-9.810417424578882,0.004386161206039223,1.532027329115601e-05,2.850480754490557e-07,0.15627070430759557,1.9425990344570376e-05,1.3615109067142107e-05
2024-04-19 19:08:23.506,0.00021408332506867958,0.2334605886133015,-9.845937786490817,0.001717955000983661,1.685072981586919e-05,-3.1767640503563256e-07,-0.10672877651363918,6.120654770504094e-05,-2.5849238960495068e-05
2024-04-19 19:08:23.566,6.826799636635057e-05,-0.9895923111976399,-9.767521267623096,-0.0015453362784153316,1.9147943444336843e-05,-1.1721463363711994e-06,-0.13053170892954324,9.19067744875038e-05,-3.62364319711547e-05
2024-04-19 19:08:23.624,0.00030000574607356604,-0.23463862448464393,-9.75817842626283,0.001828245814008798,2.029490128168678e-05,1.2460372965065772e-06,0.13494334699236052,4.6222332930309426e-05,9.922662125291893e-05
2024-04-19 19:08:23.681,4.2991981619967875e-05,0.4039971478975103,-9.845318550140368,0.005919456854988457,1.9840118852505698e-05,5.381658750153002e-06,0.16364978036705255,-1.7389206387805923e-05,0.00016885241515511798
2024-04-19 19:08:23.738,3.362518708077753e-05,-1.0754585562929173,-9.896187852410991,0.0032422506891254237,1.86808801990613e-05,9.115653925252894e-06,-0.10708940524110197,-4.531276766686541e-05,0.00014738360452693798
2024-04-19 19:08:23.796,0.0012309371738552155,-1.9657736481707953,-9.767494259269714,-0.0015063287589104882,2.0031246618152178e-05,9.5298330278609e-06,-0.18994342772019718,5.573485339335107e-05,1.3106947889342734e-05
2024-04-19 19:08:23.854,0.0004655536151284905,-0.4643569654485162,-9.663457523252504,-0.000711832227123116,2.1300745210991873e-05,9.745286183999322e-06,0.0317798819429927,5.047073899471735e-05,9.290766195606331e-06
2024-04-19 19:08:23.910,0.0005298585823117404,1.0807313937765537,-9.788096976286782,0.0026553572565197726,2.3210647931417605e-05,9.06477407892366e-06,0.13468770790147325,7.502345031205731e-05,-2.454863185693856e-05
2024-04-19 19:08:23.967,0.0001875041341506031,0.5522923572762775,-9.960465032622482,0.0032156482823232028,2.4049861529670635e-05,9.285860099571827e-06,0.02241173797512966,3.339547016233559e-05,9.25634844637272e-06
2024-04-19 19:08:24.054,0.0008166801687590986,-0.6449328414592195,-9.89080164168879,0.0018179717138944716,2.3977264905846415e-05,1.1581876353580886e-05,-0.05590724656509511,-2.2192546920462027e-06,9.050063598707113e-05
2024-04-19 19:08:24.112,0.00014071418845682475,-0.7243530946392494,-9.694468328340086,0.0022333972356905424,2.2931848640617446e-05,1.442805491230717e-05,0.01661705198494879,-4.175376389361727e-05,0.00011433915171420991
2024-04-19 19:08:24.169,0.0007366850573156257,-0.340080399327818,-9.698536065756027,0.0019217731873371767,2.359989877016544e-05,1.6224537957116556e-05,-0.012464990188560104,2.7039393653562563e-05,7.152167307094995e-05
2024-04-19 19:08:24.226,0.00023721670469203202,-0.22684064256597983,-9.85176246386032,0.0005930699776381598,2.540175022165241e-05,1.5796154073768466e-05,-0.053148172682199936,7.292627683869353e-05,-1.843232722341761e-05
2024-04-19 19:08:24.285,0.0006811152349468448,0.09318092919213009,-9.906175262094532,-0.000295586906202227,2.7197882667667178e-05,1.5158060023380691e-05,-0.0355462750687118,7.241500158854981e-05,-2.6405046251857418e-05
2024-04-19 19:08:24.361,0.0005574859434417286,0.689079521556333,-9.799392149067483,0.001719318452679978,2.783541838533501e-05,1.53640641675814e-05,0.08059624852701164,2.4299857677180923e-05,1.0391678554176331e-05
2024-04-19 19:08:24.418,0.0006988307072827094,0.6657231341098623,-9.760249594438141,0.003634490328593436,2.8059514235746508e-05,1.707286112025841e-05,0.07660715940621715,8.045006428525333e-06,7.045662210673309e-05
2024-04-19 19:08:24.475,0.0004033300662617791,-0.19286467534387627,-9.822041167948303,0.0036694633250002194,2.768611000896827e-05,1.9742211718164307e-05,0.0013989259778589998,-1.4568003942106917e-05,0.00010686745381689225
2024-04-19 19:08:24.550,0.0003738411514646211,-0.8989505304754926,-9.848487375049986,0.0011654199278385911,2.7304208611859834e-05,2.256004550812133e-05,-0.10016205805173921,-1.316702693815958e-05,0.00010995815237151832
2024-04-19 19:08:24.607,0.000773169714077071,-0.49025193438599945,-9.767595214632008,-0.00011881441494348962,2.8448302712453034e-05,2.277833418610821e-05,-0.05136938345566602,4.692268879346755e-05,7.335266437773694e-06
2024-04-19 19:08:24.677,0.0007289266358680245,0.5444547921491839,-9.748687784016992,0.0005853959165429107,2.918493923318374e-05,2.306974347022492e-05,0.028168414919800183,2.8831401379177693e-05,1.2441065169752365e-05
2024-04-19 19:08:24.735,0.0007446003211170981,0.9844055746638363,-9.83434235532632,0.0011640415720846134,3.0028625762163205e-05,2.2186881649545404e-05,0.023145837221477297,3.317334460997399e-05,-3.467744719446707e-05
2024-04-19 19:08:24.808,0.0004928591032566384,0.7066112141710037,-9.88453989465578,0.002058237846385851,3.0207459433552282e-05,2.2704209796403453e-05,0.03576789809608627,6.405038360284175e-06,2.1754404367898685e-05
2024-04-19 19:08:24.866,0.0007527650820407837,0.28905239897042295,-9.83166610690302,0.0032079407344689347,2.9811627691336438e-05,2.69476324003958e-05,0.045988272036875597,-1.6327547150516553e-05,0.00017117995166479936
2024-04-19 19:08:24.922,-0.0003216218619432947,-0.19400645057267604,-9.762432241920342,0.0025516154464536875,2.8228807908206777e-05,3.0512283717922252e-05,-0.026253126559917503,-6.224304283836272e-05,0.00014196291904526768
2024-04-19 19:08:24.979,0.0013306031512552918,-0.4468220306672868,-9.762102367480079,0.00030186029483979926,2.9363584279283677e-05,3.113248248093235e-05,-0.08999031589338112,4.8146440623473644e-05,2.2256189560318924e-05
2024-04-19 19:08:25.037,0.0006551969904949077,0.12446462342264521,-9.805120620819599,-0.0003458261485959046,2.993054655489732e-05,3.128042222736095e-05,-0.025907457643304488,2.3483515950492995e-05,5.165236821916821e-06
2024-04-19 19:08:25.093,0.0008782230489811622,0.9716979464920282,-9.841132814159828,0.000654198244674804,3.1262880663388805e-05,3.033706778557564e-05,0.04000098067950092,5.201880255202068e-05,-3.657033949010413e-05
2024-04-19 19:08:25.151,0.0004132388542475511,1.0939322765538972,-9.839395245714897,0.0023380890664433398,3.14642204649631e-05,3.0507830389824273e-05,0.06735571618050153,6.0328723289307535e-06,8.923876311296416e-06
2024-04-19 19:08:25.213,0.0007066773895025835,0.493308240982033,-9.823361969560887,0.0023179799195795522,3.146200817096413e-05,3.100194937308932e-05,-0.0008043686766890733,-1.8196140201180504e-08,1.9739545972020078e-05
2024-04-19 19:08:25.272,0.0006617956811973112,-0.08078087028598005,-9.78877684173396,0.002417482429405166,3.135876241701607e-05,3.538969749409256e-05,0.003980105927479743,-3.828607660598125e-06,0.00017564492213313637
2024-04-19 19:08:25.329,-0.00041766116686454844,-0.17829055749548745,-9.789069090743993,0.002163063829013399,3.0513172043119186e-05,3.809403081004689e-05,-0.010176775214635399,-3.3230047501290396e-05,0.00010792637869983859
2024-04-19 19:08:25.385,0.001452854853938432,-0.09789315053024267,-9.803487267365819,0.0003249794262904417,3.198725989595697e-05,3.7574071239019366e-05,-0.07352344034503908,6.175888808324025e-05,-2.305931252047228e-05
2024-04-19 19:08:25.449,0.0007911362978881679,0.3215711982250157,-9.804665576631255,-0.0005687438380644965,3.3436123679675194e-05,3.691418811438026e-05,-0.03574892892302195,5.9313947646940993e-05,-2.7504504918347e-05
2024-04-19 19:08:25.507,0.0006545607819282101,1.0535603936467506,-9.812734461902215,0.001941956735195149,3.4481417093059544e-05,3.6883378240511725e-05,0.10042807443767338,3.811279988035288e-05,2.0561713666046015e-06
2024-04-19 19:08:25.564,0.0007717779144010548,0.9581244386598968,-9.84858404632864,0.0034618825634297494,3.448844745532998e-05,3.8517309001346954e-05,0.060797258590426166,-1.7260656588459507e-06,6.746168918837897e-05
2024-04-19 19:08:25.620,0.0004883702980535869,0.001518014979158748,-9.835253654422297,0.003211368346985377,3.446107945354794e-05,4.232167960603498e-05,-0.010020629719404556,-2.2112571758616363e-07,0.00015183076981425877
2024-04-19 19:08:25.723,-0.00011141480097783045,-0.5875733984017341,-9.784876928637992,0.0016228818253326415,3.335853936830426e-05,4.691160093096113e-05,-0.06353966105332294,-4.111629986018587e-05,0.00018147631057181623
2024-04-19 19:08:25.781,0.001353873163266442,-0.2431797213832235,-9.747640139302568,0.00029992314367139516,3.3910752520485655e-05,4.826419885519019e-05,-0.052918376289460375,2.4587875806008906e-05,5.233290782994897e-05
2024-04-19 19:08:25.838,0.0012179716737979536,0.5484245311518655,-9.790936299285152,0.000690039287408261,3.508678695996585e-05,4.8349825275680883e-05,0.015604649883176199,4.629105262261173e-05,3.922427428523504e-06
2024-04-19 19:08:25.893,0.0008115147762686796,0.9792041790315498,-9.864041392629863,0.00047095123066359006,3.57664344843245e-05,4.8419052763014015e-05,-0.008763522531879914,2.7610805747732914e-05,2.448658995751997e-06
2024-04-19 19:08:25.949,0.0007073585839488309,0.9350524014442484,-9.847365690194396,0.0009999759842121432,3.5745467688042324e-05,4.774301289259719e-05,0.021160996998137692,-1.8893499479775187e-06,-2.6282594304178264e-05
2024-04-19 19:08:26.007,0.0007868701597149018,0.8340717188197582,-9.798041172604915,0.0026290008486759857,3.589646287648663e-05,4.8974426296573e-05,0.06516110746135048,3.066334014053412e-06,5.158040028394006e-05
2024-04-19 19:08:26.064,0.0004384620799344305,0.3895260281364178,-9.79198496845436,0.0034191088724001392,3.474438021932978e-05,5.287050873507075e-05,0.031604458573826474,-4.7093663621884934e-05,0.00015714033433290726
2024-04-19 19:08:26.119,0.00036151836428195103,-0.28297425417072425,-9.816913399228282,0.0009467266752098082,3.579686112796918e-05,5.332669894500034e-05,-0.09889554692102306,4.734614402764017e-05,1.4773193840024465e-05
2024-04-19 19:08:26.175,0.0008371457966230973,-0.14270715668977704,-9.791208897389794,-0.001241616981171438,3.6699314008810404e-05,5.33560956784202e-05,-0.08753376260618906,4.077181948879054e-05,-1.9018331250534231e-06
2024-04-19 19:08:26.232,0.0010750244713180308,0.9425797808714501,-9.777680971974759,0.0005249083246456112,3.853556122447985e-05,5.260834427741363e-05,0.0706610308723056,6.966763780682599e-05,-2.7350088909485244e-05
2024-04-19 19:08:26.288,0.00040636387896306837,1.4388325639251054,-9.834911113995624,0.0033118316926901066,3.977945970340987e-05,5.232708579182135e-05,0.11147717874763784,4.387405729792076e-05,-7.091679590415553e-06
2024-04-19 19:08:26.344,0.0008734461727136905,0.5028749926512831,-9.879971105718495,0.002756666591642177,3.9422665520561515e-05,5.518778961430317e-05,-0.022206711748199423,-1.2796453879197272e-05,0.00011358081187639182
2024-04-19 19:08:26.400,0.00031266325144904325,-0.3429170767881247,-9.805478807464782,0.0021134690062847255,3.9027008136831145e-05,6.086317256563652e-05,-0.025727989786550432,-1.3928419068964454e-05,0.00022603145146329458
2024-04-19 19:08:26.458,0.0001279782675887536,-0.23519556317946527,-9.741072639082834,0.0015816577691038101,3.844502720110059e-05,6.436375777490608e-05,-0.021272492778363836,-2.176412134132058e-05,0.00013922814884674537
2024-04-19 19:08:26.563,0.001987724513076569,0.18411031777306813,-9.768132308335277,0.0008992702394612525,3.9194160307153434e-05,6.546345412791386e-05,-0.027295522429275697,3.1761125636719306e-05,4.2910532163074845e-05
2024-04-19 19:08:26.620,0.0011190063028707435,0.5177910572082327,-9.84912300267697,0.000362992304976431,3.993686751805887e-05,6.529184212711246e-05,-0.021451119625778142,3.1109979430276916e-05,-7.716155290279547e-06
2024-04-19 19:08:26.677,0.0010039529946148458,0.8505713954762172,-9.857135729199348,-7.599220088429069e-05,4.145189673234753e-05,6.465104144962864e-05,-0.017559375483448467,6.174980753910454e-05,-2.6328349540178e-05
2024-04-19 19:08:26.734,0.0005632739503958703,1.0712282688984258,-9.796210751303706,0.0014425666424682175,4.184554572650148e-05,6.431550563908056e-05,0.06074237514868964,1.1805078185598308e-05,-1.0917605997287233e-05
2024-04-19 19:08:26.790,0.000882554000017535,0.9236953713852317,-9.794825967833285,0.0026446582901535243,4.246066196767863e-05,6.454262384588946e-05,0.04808377026718446,2.1542604796147325e-05,1.1041743971052561e-05
2024-04-19 19:08:26.854,0.0006137263859602656,0.259839405162117,-9.827090984972529,0.002788316579124643,4.274843925847788e-05,6.86585219831402e-05,0.005746346483662752,1.1599919081536609e-05,0.00016484824290154606
2024-04-19 19:08:26.911,-0.00020913897886014272,-0.2121256971094659,-9.82586415380326,0.0020475463023782816,4.223458576472332e-05,7.085832075457583e-05,-0.02963090338584313,-1.8341642427155722e-05,8.67637671438953e-05
2024-04-19 19:08:26.971,0.0017930390130098482,-0.14649450781641538,-9.780979902641871,-4.7337266429053344e-05,4.249085265879774e-05,7.098198356922448e-05,-0.08379539917772769,1.6191912775180138e-05,1.4144369819299869e-06
2024-04-19 19:08:27.029,0.0013112262595518767,0.46715305325360434,-9.75964227901608,-0.00035844745099297476,4.342333928509829e-05,7.046375321154184e-05,-0.012444404097637175,3.819049327884488e-05,-2.1244162388656357e-05
2024-04-19 19:08:27.086,0.0006144624541983037,1.2065436467214246,-9.822990465003517,0.0025615471521635348,4.32338359882176e-05,7.12112968040559e-05,0.11679989426516395,-1.571320518770951e-05,3.502595909057334e-05
2024-04-19 19:08:27.168,0.000959204163479191,0.8931209360140676,-9.891715641620106,0.004562009493653954,4.309523848788811e-05,7.574253569337248e-05,0.08001900614948423,-1.0395905574721282e-05,0.0001847641310089003
2024-04-19 19:08:27.230,-0.0005111656362759148,-0.3324802283137183,-9.844976289110454,0.002088464963820412,4.180973308578196e-05,7.951731004358991e-05,-0.09894236325561251,-4.3614255453070094e-05,0.00014682770983276755
2024-04-19 19:08:27.291,0.0018727169751393638,-0.6530748253624736,-9.722314778866195,-0.0009482914068456191,4.3293296378238134e-05,8.004169332798266e-05,-0.1214703169269763,6.899410164404606e-05,1.597679741288119e-05
2024-04-19 19:08:27.348,0.0010141606169658882,0.5508354443310688,-9.716695923775909,-0.0002552606375727548,4.516180714866232e-05,8.021083273535801e-05,0.027721241901672702,7.25199561294639e-05,7.985000787829206e-06
2024-04-19 19:08:27.409,0.001025586382356575,1.5125700601925394,-9.854189583506743,0.001445148261686067,4.633405868203026e-05,7.895981916440528e-05,0.06801638198412913,4.136911166113326e-05,-4.7023996979928586e-05
2024-04-19 19:08:27.469,0.0008324519060588788,1.1405496898404934,-9.92433344373386,0.002243291682092313,4.8085259777232906e-05,7.88739086508613e-05,0.031925797520278236,6.75232213349497e-05,-2.107642516832374e-06
2024-04-19 19:08:27.542,0.0005477763291018428,0.37208858827220465,-9.830898324608976,0.001698963517523791,4.744135487692044e-05,8.097025519179538e-05,-0.021773175058721977,-2.3897854456273553e-05,8.284808181575303e-05
2024-04-19 19:08:27.601,0.0009816716658253234,0.13391437478863344,-9.714846782891838,0.0025822521770319648,4.657219233454107e-05,8.625559490713146e-05,0.03533161570233046,-3.707619094475588e-05,0.00021318748338879372
2024-04-19 19:08:27.660,0.0001376540842544756,0.09542738972995721,-9.768243787642165,0.0022204519053560506,4.518757636604086e-05,8.999051649566446e-05,-0.014472064110424024,-5.380585467566577e-05,0.0001488429345796184
2024-04-19 19:08:27.721,0.00203511563083168,-0.0063459851558830185,-9.856757053458496,0.000378493235655409,4.655284116720408e-05,9.071858605881535e-05,-0.07367841546773915,6.125377410103005e-05,2.577635964850866e-05
2024-04-19 19:08:27.780,0.0009070004263165263,0.3753030869121827,-9.843300933010553,-0.000463739068077531,4.855106046151765e-05,9.166300755354508e-05,-0.03368928758064567,8.296887600113408e-05,3.624829495076449e-05
2024-04-19 19:08:27.837,0.0009226490890938057,1.1044068144869548,-9.777555895358928,0.0004527308098203295,5.0147643037982975e-05,9.076533854778784e-05,0.03665880385116482,6.0488407399956585e-05,-3.415278554762055e-05
2024-04-19 19:08:27.895,0.0010098678021774176,1.262430274501495,-9.790176619497121,0.002374168573840493,5.187318868097722e-05,9.039459446454458e-05,0.07685760577210676,6.202330983057103e-05,-1.1116121122642274e-05
2024-04-19 19:08:27.978,0.0008557195988586496,0.6350160216579054,-9.860718899502732,0.0024044290772858618,5.160649142212039e-05,9.167572212766708e-05,0.001210419987166518,-1.0653907535288948e-05,5.1333661757378135e-05
2024-04-19 19:08:28.039,0.001002939300290107,0.0015598895684309601,-9.837879797693464,0.0024634079608976188,5.034909489940123e-05,9.541893653879435e-05,0.0023591501972176606,-5.01428386440724e-05,0.00014997430844036365
2024-04-19 19:08:28.099,0.0005859535838446027,-0.14519713478623528,-9.773899523104657,0.0014091953836932061,4.894231894494658e-05,9.849565826680154e-05,-0.042168595232028996,-5.2075746578383396e-05,0.00012102134559217192
2024-04-19 19:08:28.159,0.0015872697004910398,0.10313827462023868,-9.748859613023848,0.00028795005953010077,5.0617079964835575e-05,9.859345278754704e-05,-0.044849824783309296,7.14096760019232e-05,1.6986410731493488e-06
2024-04-19 19:08:28.217,0.000760327123696403,0.6180188994445243,-9.812601189648118,-0.00016521291584825043,5.290376227526065e-05,9.885055150307653e-05,-0.0181265106157791,9.325310729748891e-05,9.382249346476639e-06
2024-04-19 19:08:28.276,0.0008784835168826946,1.0955430861816766,-9.859009922659485,0.0006548203643968334,5.523564057169835e-05,9.774643140566867e-05,0.03280134455794906,9.000561117315277e-05,-4.248710700627423e-05
2024-04-19 19:08:28.335,0.0009205437112773554,1.1052009357463124,-9.843038206924733,0.002211485040527636,5.704935711260274e-05,9.756122667452969e-05,0.06226666439499659,6.645606811881003e-05,-4.111091022561775e-06
2024-04-19 19:08:28.395,0.0010450226185864618,0.55062454197849,-9.806311037277931,0.003009319470840496,5.645774527900412e-05,9.982594022679756e-05,0.03191347918918489,-2.649905132915572e-05,9.249059091141743e-05
2024-04-19 19:08:28.458,0.001063217116074656,-0.0648780287627322,-9.786326345892023,0.00364535310937257,5.413395544721096e-05,0.00010205252581186717,0.025441472557236406,-9.516031473812362e-05,9.084809630638575e-05
2024-04-19 19:08:28.518,0.0016744042057379508,-0.5307640802869871,-9.80174820880484,0.0004581921110276446,5.42317429827956e-05,0.00010219408390639254,-0.12748676129197448,1.693226341253661e-05,-1.2260524892566255e-06
2024-04-19 19:08:28.575,0.0006845103671386192,-0.10755333422197025,-9.770609719398344,-0.0022276193248506244,5.4760462201063424e-05,0.00010258571432716725,-0.10743252974653558,3.211351875793114e-05,9.925275602877143e-06
2024-04-19 19:08:28.634,0.0009207254112571137,1.2844800455416716,-9.786062781615927,-0.0002262480752809697,5.733914209240976e-05,0.00010401272620502724,0.08005493034245505,9.492518594798446e-05,6.149401394342164e-05
2024-04-19 19:08:28.693,0.0006294407611477124,1.8704327914006333,-9.85807506110349,0.000404913014713103,5.9415711672946275e-05,0.00010408441654351602,0.02524645240691913,8.043902949530803e-05,4.283481629116772e-06
2024-04-19 19:08:28.769,0.001129333614718854,1.240853347551524,-9.859830045279738,8.148327869007988e-05,5.8935845276709417e-05,0.00010543906471777943,-0.012937194978687654,-1.784361861600581e-05,5.341892661419106e-05
2024-04-19 19:08:28.827,0.0016394169523510655,0.8338535550618253,-9.801779594374112,-0.000144906356730907,5.764960445122362e-05,0.00010577887933252571,-0.009055591584217034,-5.049665167621612e-05,1.3051676671261203e-05
2024-04-19 19:08:28.887,0.0015714242969660857,0.8759231414440272,-9.751907272872263,-2.6106835768518334e-05,5.779488428997633e-05,0.00010600896899421545,0.0047519809068508265,5.308303216308852e-06,9.477704799652362e-06
2024-04-19 19:08:28.946,0.0005365949250307191,0.8880037217976621,-9.793004300963862,0.00017670915177554972,5.8491534540725234e-05,0.00010656814655561263,0.008112641125358852,2.7010079977416153e-05,2.283128641606736e-05
2024-04-19 19:08:29.005,0.0009310485166924284,0.7790320648526444,-9.851086975629036,6.774068215660811e-05,6.006818810880577e-05,0.000107394725885489,-0.004358734051163117,6.353288160121799e-05,3.280394601946558e-05
2024-04-19 19:08:29.065,0.0005031238106083602,0.6676572174294683,-9.834396744562095,-7.396565132314756e-05,6.266188901854247e-05,0.00010799897789420171,-0.005668243672508783,0.00010435503792443109,2.3837361281408445e-05
2024-04-19 19:08:29.123,0.0010070898587452933,0.6575015177646862,-9.787256364570862,-1.4532358203975642e-05,6.350794465304572e-05,0.00010858885630912166,0.002377333865040132,3.35851353803278e-05,2.3744600717847686e-05
2024-04-19 19:08:29.184,0.0016983807188842232,0.6494112877454835,-9.789014701508219,8.763373317047304e-05,6.182436050013896e-05,0.00010997512961721853,0.004086632887233701,-6.77822338058201e-05,5.5716429298561475e-05
2024-04-19 19:08:29.243,0.001577948369316095,0.5791519726284308,-9.823221805520065,0.00011466816584960534,6.109594235592997e-05,0.00011003791356173394,0.0010813739463016701,-2.9255353505247712e-05,2.5815693346656264e-06
2024-04-19 19:08:29.314,0.001037873774565087,0.5069986443436417,-9.82730649300606,6.398186404473902e-05,6.118210451997568e-05,0.00011101263048160108,-0.002027454070297942,3.6720731803549666e-06,3.886457867550436e-05
2024-04-19 19:08:29.374,0.0007080127322976687,0.46413576616121077,-9.800628293462058,-6.767735217808377e-05,6.182384398980919e-05,0.00011188907050877284,-0.005266367928118443,2.6251882707500264e-05,3.4737209121021684e-05
2024-04-19 19:08:29.434,0.0007665930843044796,0.4619060737945048,-9.790863469863275,-0.00015912950651871376,6.465718137261644e-05,0.0001125487367665838,-0.0036580751942167263,0.00011373864087554419,2.6178612469735074e-05
2024-04-19 19:08:29.494,0.0006975991207751426,0.48377148080864407,-9.81303509281502,-9.636953919178178e-05,6.70012917999578e-05,0.00011337810953595408,0.0025104070213973428,9.347866671383017e-05,3.334624441444599e-05
2024-04-19 19:08:29.552,0.0014871465144417565,0.473699416817473,-9.83202075452259,4.1965397310005705e-05,6.579341026397439e-05,0.00011463105174716267,0.005533388644245731,-4.894048255018969e-05,5.0490530308713297e-05
2024-04-19 19:08:29.610,0.001959514381875416,0.40851499458377744,-9.81854814966586,9.907782533362238e-05,6.538902680938274e-05,0.0001146931006570795,0.002284495090539437,-1.643694722955835e-05,2.6338971698553666e-06
2024-04-19 19:08:29.668,0.0012936288453070366,0.3267306042624304,-9.792718105550275,5.893409892645054e-05,6.465336603063246e-05,0.0001158068533528028,-0.0016057553027007784,-2.9239640860218296e-05,4.444683642288898e-05
2024-04-19 19:08:29.728,0.0009626918971486051,0.28449936902898565,-9.792826977154077,-8.694827964359479e-05,6.564977537441538e-05,0.00011639651893462853,-0.005835292029746914,4.053015026251712e-05,2.321292561431631e-05
2024-04-19 19:08:29.786,0.0007827947198341722,0.2960965518801947,-9.813843573903645,-0.00016880409546307992,6.791561386547857e-05,0.00011722425947051194,-0.003274224331189125,9.100910351824458e-05,3.291004841338434e-05
2024-04-19 19:08:29.844,0.0008903146440427081,0.3290155484296447,-9.824141672783322,-0.00018139930272389207,7.0567584081542e-05,0.0001177564446005703,-0.0005037973623804428,0.00010613401005388692,2.127244303979401e-05
2024-04-19 19:08:29.903,0.0010628188469425808,0.3413139651231354,-9.815665427037574,-7.778033980089619e-05,7.143528245727244e-05,0.00011816543529868251,0.004144761432100631,3.4218582824359795e-05,1.6654800752651036e-05
2024-04-19 19:08:29.975,0.0019387688200820203,0.30137541494784303,-9.80704156667076,7.20918212736138e-05,7.02276844646957e-05,0.00011942675903345942,0.005994877141645417,-4.900860709450358e-05,5.088478194362136e-05
2024-04-19 19:08:30.040,0.001499692981888105,0.22585394927319005,-9.804924856823714,5.093962505846746e-05,6.991912262181248e-05,0.00011964085410680068,-0.0008460899149258627,-1.2240994201863392e-05,8.505008710588227e-06
2024-04-19 19:08:30.098,0.0010961307727990666,0.16760361108669622,-9.805431589412493,-7.013231848514352e-05,7.091086053870172e-05,0.00012001906566950696,-0.004842874024753814,4.024790579637361e-05,1.479271093851743e-05
2024-04-19 19:08:30.155,0.0008058683435268282,0.17076706633985006,-9.807919058758886,-0.00020505489730454605,7.118833938433563e-05,0.00012086796390627356,-0.00539690424145082,1.1740026547237647e-05,3.35756824295762e-05
2024-04-19 19:08:30.214,0.0011900151097076113,0.21092635159637413,-9.810121636543235,-0.0002488419756244918,7.383533664289736e-05,0.00012180092239016809,-0.0017514731211748372,0.00010608233248617023,3.7220058782914835e-05
2024-04-19 19:08:30.272,0.0005569821686660027,0.245057996655388,-9.814676548774816,-0.0001651533105173021,7.620191897582866e-05,0.00012256046177091848,0.0033475558549822884,9.425050950623262e-05,3.064432671592658e-05
2024-04-19 19:08:30.330,0.0015379252155829758,0.2272480146822997,-9.818033966496836,-1.8764290387972767e-05,7.572029971629089e-05,0.00012371606759940763,0.005855554913328367,-1.9983273178269155e-05,4.6670115709211735e-05
2024-04-19 19:08:30.388,0.0018080158434515222,0.17024433683141957,-9.812013245734688,2.414361048173863e-05,7.447335316183676e-05,0.0001240669579822064,0.0017163088011767872,-5.008985286755615e-05,1.4166788780979197e-05
2024-04-19 19:08:30.448,0.0015199904129258545,0.10478548367944578,-9.800716117176673,-5.8934095308396444e-05,7.54624669965478e-05,0.00012438027485246002,-0.0033231042351421066,3.997612743437125e-05,1.2287565327548007e-05
2024-04-19 19:08:30.506,0.0006449342698205807,0.08700545245685794,-9.80034414695804,-0.00022347645839927257,7.474610799491766e-05,0.00012518030008089524,-0.0065817004841244794,-2.7842725584632506e-05,3.149818405732766e-05
2024-04-19 19:08:30.568,0.0013635918583420597,0.12590429416811652,-9.810446947503095,-0.00027862564003774845,7.795210044093103e-05,0.0001256879780712899,-0.002205952844280089,0.00012851022847387933,2.0178048067941448e-05
2024-04-19 19:08:31.767,0.0003936550176927179,0.1722884042486934,-9.818559046139464,-0.00023387001848574048,8.080205512344758e-05,0.00012685133991408,0.00179023546519827,0.00011376226183439734,4.6700638736208995e-05
2024-04-19 19:08:31.840,0.001178713251595472,0.17617711891882767,-9.817929192712167,-0.0001348927669670358,8.200500043651597e-05,0.00012768924850561922,0.003959093438312031,4.761104788570841e-05,3.384269448276751e-05
2024-04-19 19:08:31.914,0.0018088704501074513,0.13857823211118594,-9.81130665133089,-2.6229770243286774e-05,8.128024298013517e-05,0.0001283150984207512,0.004346514099125109,-2.9545948323226674e-05,2.53896879635189e-05
2024-04-19 19:08:31.984,0.0016669939558986767,0.07486576331776666,-9.80301061649477,-5.01461350564693e-05,8.01363531783521e-05,0.00012880871384684484,-0.000956662035728839,-4.563382364260595e-05,1.966457267432323e-05
2024-04-19 19:08:32.042,0.001293953841854595,0.038444558224247326,-9.801380708934351,-0.00019865484790638233,8.112411145284331e-05,0.00012917452520556694,-0.005940344594901533,4.027272188972925e-05,1.4164474429145938e-05
2024-04-19 19:08:32.100,0.0006374596931294082,0.057182660578921726,-9.808406326706779,-0.00030152127217344753,8.222599736814953e-05,0.00012980212371429563,-0.004114653425411048,4.4599491941432656e-05,2.478361919660845e-05
2024-04-19 19:08:32.158,0.0009589620787384452,0.1124487175979795,-9.814807027061324,-0.00031504779985409934,8.49195492232385e-05,0.0001307783238063409,-0.0005410504616223482,0.0001078000119639749,3.9037480299056155e-05
2024-04-19 19:08:32.214,0.0007556787561820171,0.14151414671647689,-9.816521964368764,-0.0002313889886065158,8.725842543926689e-05,0.0001315500305182577,0.0033463620723815134,9.311021921720088e-05,3.117400423396761e-05
2024-04-19 19:08:32.269,0.001565823770967126,0.12039403237626362,-9.815182163776559,-9.302795330839628e-05,8.670147151273688e-05,0.00013257204248321602,0.005534434945329415,-2.301002688183871e-05,4.1361315159421644e-05
2024-04-19 19:08:32.330,0.0018765142403944267,0.06524588224474341,-9.808202925866144,-7.260219451079642e-05,8.567268325264549e-05,0.00013282309364932586,0.000817024028901548,-4.126057884931481e-05,1.0109889476621658e-05
2024-04-19 19:08:32.397,0.001399490431061178,0.014396222966908364,-9.800776746273401,-0.00018362702587570916,8.590403784079085e-05,0.00013335357394844664,-0.004440993831979118,9.84024457981421e-06,2.0840580400605232e-05
2024-04-19 19:08:32.458,0.0008421713230458817,0.014264992801167877,-9.803497418781399,-0.00033379718368327366,8.592932060376022e-05,0.00013401232600362837,-0.006006808573942378,1.803755211706457e-06,2.5834737097562156e-05
2024-04-19 19:08:32.515,0.0010390435324888953,0.06428372129707617,-9.812062140167534,-0.0003702119352987611,8.834886234661648e-05,0.00013484766388917335,-0.0014565801228486755,9.696454252846446e-05,3.33242561726774e-05
2024-04-19 19:08:32.573,0.000624474002290726,0.10682355061476018,-9.817695151360285,-0.0002890005892817223,9.145440566459894e-05,0.00013584187542130502,0.003248467083165857,0.00012377211657382928,4.009124985266099e-05
2024-04-19 19:08:32.633,0.0011258390179174813,0.1033838316296922,-9.817075542480822,-0.000182509438540386,9.13247503684602e-05,0.00013720664485105928,0.004259640401780102,-5.774863064369639e-06,5.4979318570061495e-05
2024-04-19 19:08:32.692,0.0019348970444770536,0.06265101776817869,-9.810651745327526,-0.0001336634208584115,9.175913486251075e-05,0.00013734271268872101,0.0019538425894805624,1.710655267088428e-05,5.623440887431497e-06
2024-04-19 19:08:32.749,0.0013751525813713956,0.00765263184834926,-9.801977966073084,-0.00019766392025271105,9.013941647211996e-05,0.00013801507617541256,-0.002560031299277713,-6.444239572181437e-05,2.6646907395781118e-05
2024-04-19 19:08:32.808,0.0015751693060686723,-0.005436354255008914,-9.801285155242736,-0.0003395714028376967,8.945335567677723e-05,0.0001390265891314801,-0.005676306844377689,-2.667254392625769e-05,3.993986045307267e-05
2024-04-19 19:08:32.870,0.0009203822695805741,0.032002062952164366,-9.809733926973836,-0.0003733523323541839,8.925387693087223e-05,0.00013976857507758838,-0.0013512410077438182,-7.802324691177073e-06,2.9555657422965914e-05
2024-04-19 19:08:32.950,0.0008990556550977248,0.0766526916749079,-9.816768485442555,-0.00035947188051064995,9.163932380300577e-05,0.00014015759831413708,0.0005552300096086381,9.533465515194014e-05,1.564475777652934e-05
2024-04-19 19:08:33.025,0.0005250763059197334,0.08338442180077614,-9.817068091900579,-0.00030566751911734647,9.463902083199246e-05,0.00014063392861400967,0.002152189553348095,0.00011968035261345386,1.928702885946337e-05
2024-04-19 19:08:33.082,0.0011709251465159515,0.06158286995186808,-9.812935813833283,-0.0001658834667987377,9.370097666510303e-05,0.00014171672062920196,0.005591352837773104,-3.831533610865737e-05,4.3834541067059606e-05
2024-04-19 19:08:33.142,0.002089507509824725,0.012714124055507987,-9.80567187062533,-0.00017145277613410257,9.316484758835232e-05,0.0001423441845797766,-0.00022277775109951043,-2.141789131267695e-05,2.507401218932031e-05
2024-04-19 19:08:33.201,0.001105089533928371,-0.027029626688458645,-9.801011625815562,-0.00031724946433020875,9.412387373076743e-05,0.00014260333456301332,-0.00583186313850345,3.918809944312163e-05,9.835168246195343e-06
2024-04-19 19:08:33.260,0.000949576076808934,-0.008096445869497267,-9.80572886756419,-0.00044045970172981475,9.431926516744859e-05,0.00014343446053136742,-0.004928411804175393,8.504054498806911e-06,3.278495017678604e-05
2024-04-19 19:08:33.321,0.0014981031283815012,0.05593305213910961,-9.813471138023745,-0.0004322379874736262,9.560075809416369e-05,0.00014350089052086556,0.000328875692714096,5.121137911180361e-05,2.710354880055004e-06
2024-04-19 19:08:33.400,0.0016147475804895496,0.08596008493515958,-9.81765398690444,-0.0003157667986811252,9.819712963803107e-05,0.0001438042605226875,0.004658861516455727,0.00010318236090079311,1.2612812065890847e-05
2024-04-19 19:08:33.460,0.0016639265657914612,0.07213408828908484,-9.816511719820928,-0.00023681672221918056,9.970671845408631e-05,0.00014434374682101186,0.003158009660648704,5.99242450540686e-05,2.1903769354256003e-05
2024-04-19 19:08:33.519,0.001987044125806831,0.016873128169043187,-9.808871336046199,-0.00030060486759627493,0.00010160928515662053,0.00014496984049540017,-0.002551517430563581,7.646351772818343e-05,2.481234210069211e-05
2024-04-19 19:08:33.575,0.0018093671478778652,-0.0028139787473653757,-9.799667261742957,-0.0004319846674905166,9.868432346183137e-05,0.00014602637535520409,-0.005255213402369368,-0.00011625460185510533,4.167725025328943e-05
2024-04-19 19:08:33.638,0.003275871464594173,0.024914803536921045,-9.802104067143697,-0.0004659407096612685,9.569481133136785e-05,0.00014685140273683697,-0.0013582624204181728,-0.00011939744378531146,3.281143132347281e-05
2024-04-19 19:08:33.708,0.0014907839530636,0.07618991214354358,-9.813652932181675,-0.0003689527642797673,9.731002847250174e-05,0.00014731748320589449,0.0038795257643748906,6.403197102737234e-05,1.9038123235542135e-05
2024-04-19 19:08:33.783,0.0008809572798262589,0.06758655515146506,-9.819559938462863,-0.00036963823962033794,9.775108100269234e-05,0.00014771010264462588,-2.7417952724792882e-05,1.7640335321619315e-05,1.570863137059513e-05
2024-04-19 19:08:33.859,0.0019897995421931307,0.041176557578724404,-9.814981370639009,-0.0003724396577137098,9.946442353682175e-05,0.00014819331339784361,-0.00011204853264633923,6.85430538122104e-05,1.934300708175726e-05
2024-04-19 19:08:33.918,0.0014157395081059985,0.027433592519908474,-9.808546304483096,-0.0002958029684692274,9.770224132386002e-05,0.00014935411470648938,0.0030654527116237497,-7.095537938761976e-05,4.6715987194010405e-05
2024-04-19 19:08:33.976,0.002936444681515343,0.0110303629516696,-9.80366049335647,-0.00031989814522473474,9.602021374711337e-05,0.0001495343827542012,-0.0009638178402614769,-6.713942597699396e-05,7.0950791671066715e-06
2024-04-19 19:08:34.032,0.0016924629099892782,-0.006798205567948128,-9.803849831226895,-0.0004250109250823611,9.64345830425221e-05,0.00015016371811786254,-0.004204511372506783,1.7192983357532092e-05,2.477703934714533e-05
2024-04-19 19:08:34.105,0.0013526860851537292,0.0168678031005546,-9.809603355555078,-0.0005419366147846117,9.605116218063634e-05,0.00015136099195428587,-0.00467703496933703,-1.4660194690024065e-05,4.743202942538088e-05
2024-04-19 19:08:34.175,0.00175768513664175,0.05923586796276689,-9.812906663438083,-0.0004803873825109684,9.717970264199419e-05,0.00015198303288325158,0.002461973983649241,4.4756908032677264e-05,2.5139628050414072e-05
2024-04-19 19:08:34.234,0.0017184799255611364,0.085128572304025,-9.815448801417007,-0.00034331531835394045,9.912118982420517e-05,0.00015225027830403066,0.0054828936844213035,7.682236080239285e-05,1.1249075051544866e-05
2024-04-19 19:08:34.291,0.0017257542343706617,0.0440762972158695,-9.81694059384617,-0.0003251321775240979,0.0001005860008189212,0.00015256208310286925,0.00072733332525368,5.847762306947424e-05,1.2563300930683192e-05
2024-04-19 19:08:34.346,0.0017647811276547784,-0.00875377576707507,-9.80853661872878,-0.0004243217713524685,0.00010142233078309402,0.0001536098681158067,-0.003967583117620739,3.404090401221087e-05,4.152679595599874e-05
2024-04-19 19:08:34.403,0.002003918866964651,0.0018002707347319856,-9.797321632817944,-0.000510200874325825,9.903386986436681e-05,0.0001548318154239554,-0.003435183953717745,-9.503549267009934e-05,4.8481030525561515e-05
2024-04-19 19:08:34.475,0.002992664718668564,0.04048264225806132,-9.80330826717548,-0.0005087182090548639,9.891840775055651e-05,0.00015578292872994018,5.930213638655723e-05,-4.647022821237894e-06,3.8048046708972416e-05
2024-04-19 19:08:34.532,0.0011523890655713634,0.06309340642929777,-9.81725789543227,-0.00047904255248396575,0.00010004770333517428,0.000156575370109119,0.001187030248357276,4.497166090754507e-05,3.1836624592503014e-05
2024-04-19 19:08:34.604,0.0013609266297198409,0.06326855172652644,-9.8189218893973,-0.0003960579725643096,0.00010114030972655624,0.00015781201730273462,0.0033193852926641965,4.316480991423334e-05,4.981510673038292e-05
2024-04-19 19:08:34.663,0.0019102860735413017,0.04481509537033749,-9.799562581090543,-0.0003845431245213428,0.00010230648494010578,0.00015890112190666792,0.0004605968486834597,4.655754824512143e-05,4.362867687086885e-05
2024-04-19 19:08:34.735,0.0019422587898293177,0.03022894790894809,-9.806925523883475,-0.0003899932239083033,0.00010199782403168926,0.00015862833135712177,-0.0002180048356807743,-1.2307530189568143e-05,-1.0938726075844672e-05
2024-04-19 19:08:34.793,0.0024765013751377337,0.00973090663302458,-9.828717726036345,-0.0004055761120036886,0.00010154669215559783,0.0001594340699704078,-0.0006233216987310071,-1.7959442659997313e-05,3.215868713926226e-05
2024-04-19 19:08:34.849,0.0016049571888131285,0.02751911121126062,-9.803668688994735,-0.0003846585855172385,0.00010277921235026273,0.0001597208945665914,0.0008367077880085473,4.916296032615252e-05,1.1576862167159255e-05
2024-04-19 19:08:34.907,0.0015471384177906142,0.04417418285179108,-9.782423918225225,-0.0004004761899269074,0.00010239025238587353,0.000160145135109281,-0.0006327084367567763,-1.546411023041233e-05,1.689840188275304e-05
2024-04-19 19:08:34.964,0.0019969767510791703,0.038107141344783164,-9.826992730445573,-0.00040864575076607107,0.00010367582652215039,0.00016073618972994592,-0.0003267766740420436,5.1465646310947757e-05,2.36297599138617e-05
2024-04-19 19:08:35.020,0.0014694664839758683,0.031662819534577384,-9.840385427829197,-0.00038663298892505635,0.00010577010381037005,0.00016115697925368167,0.0008805222070454968,8.362301309629367e-05,1.695520436169241e-05
2024-04-19 19:08:35.077,0.001768178897381063,0.030792889985488833,-9.810535795672493,-0.0003833808108289693,0.00010626578582767038,0.00016182288964039978,0.00013008749336748096,1.9796097952876216e-05,2.6657766772399334e-05
2024-04-19 19:08:35.135,0.0018830573837105577,0.020941887947929755,-9.78513676762397,-0.0004032664317452944,0.00010804349705948982,0.00016241879894900776,-0.000795415956053776,7.122758384678434e-05,2.378057419533825e-05
2024-04-19 19:08:35.194,0.0018577356995425462,0.021301670028643988,-9.797147009843497,-0.0004628189150413561,0.00011076376392905243,0.00016262202676544472,-0.0023820827425914794,0.00010919392466486518,7.92229362167367e-06
2024-04-19 19:08:35.251,0.0017298013434927768,0.03403135726580003,-9.821360464310848,-0.0005109198843538247,0.00011039249760909337,0.00016320643760852358,-0.001924043960364297,-1.4549588733700424e-05,2.3155896692584992e-05
2024-04-19 19:08:35.309,0.0025173166759811043,0.05590016860939576,-9.822395908700125,-0.00045362489990373065,0.0001106360494774549,0.00016420239459750177,0.0022917967792201897,9.349858803258202e-06,4.0095533682239495e-05
2024-04-19 19:08:35.368,0.0018435691947356122,0.05369546479033311,-9.80847012230011,-0.0003805645139750371,0.0001122274795174706,0.00016435663533084086,0.002922425390832665,6.317486983890707e-05,6.5170151706892775e-06
2024-04-19 19:08:35.443,0.0015205049652132845,0.028808699694759042,-9.80540206648828,-0.00035838038984378626,0.00011290066717943879,0.0001648992532403754,0.000887366980996533,2.6773847507294452e-05,2.18139020163388e-05
2024-04-19 19:08:35.501,0.0020406431926216556,-0.00605721368962629,-9.811768214776945,-0.00044050442923362427,0.00010950377278720703,0.0001661086383348757,-0.0032849894756484853,-0.00013535520391610265,4.794492949360251e-05
2024-04-19 19:08:35.557,0.0027682975250431173,-0.002451428983455637,-9.808173775470944,-0.0005378909486740675,0.00010727723720605384,0.00016704549730326375,-0.0038954799823416294,-8.843424623930228e-05,3.700025856280159e-05
2024-04-19 19:08:35.618,0.001522215542767131,0.03247957779766378,-9.802141971970684,-0.0005314089452427877,0.00010702407061603457,0.00016788149085615522,0.0002592748963573898,-1.018775794004795e-05,3.346214806938119e-05
2024-04-19 19:08:35.677,0.0012490023184655937,0.08708893388017488,-9.790711384894065,-0.0003860741949389495,0.00010764620941073304,0.00016797116093260296,0.0058133943034389905,2.3908009388669877e-05,4.218277761601024e-06
2024-04-19 19:08:35.733,0.001738501347707375,0.05864880343972335,-9.827632921552958,-0.0003305673941944911,0.00011208373032433133,0.0001686676725744846,0.0022202988103605624,0.00017711860212436253,2.8158034473579533e-05
2024-04-19 19:08:35.789,0.0006869183338279771,0.02659614420830891,-9.822614769494765,-0.0004185028419700713,0.00011341551849539869,0.00016930446329180675,-0.003517411993711257,5.385431929322371e-05,2.5099951022188244e-05
2024-04-19 19:08:35.848,0.0029048864787866555,0.010231402725981047,-9.82014164251534,-0.0003704019000564276,0.0001142208309099001,0.00017011202502490604,0.001924039546831177,3.1874706093158315e-05,3.253250246599462e-05
2024-04-19 19:08:35.906,0.001838622123595813,0.021778572556864516,-9.805514849646709,-0.00035379083213857803,0.00011622337889338807,0.00017063243160453766,0.0006644539484190272,7.998149359035704e-05,2.092045707079038e-05
2024-04-19 19:08:35.962,0.001547995657717797,0.016878077366126752,-9.794541448800253,-0.0004016719826668606,0.00011846619073388951,0.00017060715179709033,-0.0019152306927225768,9.003976966085923e-05,-1.1976127438094354e-06
2024-04-19 19:08:36.035,0.0020248865955657695,0.008937322430262861,-9.805680625057116,-0.0005091950437605367,0.00011887756736552963,0.00017067381592673116,-0.004300920309537991,1.7187760183282082e-05,2.1658432387511e-06
2024-04-19 19:08:36.093,0.0021851740697288453,0.03837707854090281,-9.819019491998485,-0.000467222206153442,0.00012218586051534214,0.00017125006065774515,0.0016789334265659042,0.0001320343060472973,2.3311075166748013e-05
2024-04-19 19:08:36.168,0.001151983595799546,0.05964781729285495,-9.820362179690532,-0.00037630278111112556,0.00012334587118154535,0.00017236727600263154,0.003636779673794762,4.576066220565061e-05,4.515022923392459e-05
2024-04-19 19:08:36.225,0.0024198521474551324,0.0342340909011535,-9.811868238816709,-0.0003791675291701969,0.00012196768813931466,0.00017357664193017833,-0.00011460533090735565,-5.5125901468170766e-05,4.8339603626810556e-05
2024-04-19 19:08:36.281,0.002475638753560126,0.004952611826733846,-9.803031105590438,-0.00042724984699762697,0.00011807428426901221,0.00017399081527196003,-0.0019233218099569003,-0.00015540927270654828,1.6265961778542002e-05
2024-04-19 19:08:36.339,0.002621196597929728,0.006779612200208732,-9.80097018196296,-0.00047549979970119225,0.00011782670994211336,0.00017468368638857808,-0.0019300032526916547,-9.580233918716511e-06,2.7482417328401666e-05
2024-04-19 19:08:36.396,0.000878030599911408,0.027297348037266873,-9.807161800409434,-0.0005069487240353586,0.00011789160938853509,0.00017599505456788246,-0.0012579628325270497,2.7892087499634676e-06,5.2307930881126426e-05
2024-04-19 19:08:36.452,0.0014402068129917454,0.04473900301131862,-9.81461601281034,-0.0004869885924578254,0.00012064769994618002,0.00017664761185632647,0.0007984215876440915,0.00011009033706733098,2.6250036578234156e-05
2024-04-19 19:08:36.509,0.0012020610538216383,0.0485418903417197,-9.815209358394448,-0.0004751533472523186,0.00012285596109076272,0.0001773938786917396,0.00047342178024616886,8.823259857445182e-05,2.9949719241948193e-05
2024-04-19 19:08:36.589,0.0021076751090083915,0.03588224074163541,-9.812508895585356,-0.0004298612746043447,0.00012352979006356724,0.0001779438574141358,0.0018116851097457842,2.662222800130842e-05,2.2233178928939196e-05
2024-04-19 19:08:36.650,0.002373463247339037,0.023437424511943337,-9.809056389832984,-0.00046194346997033823,0.00012486571236109396,0.00017817875185858443,-0.0012832795800541848,5.366097460876418e-05,9.262047723062202e-06
2024-04-19 19:08:36.706,0.001797361807016002,0.02741471759536015,-9.795847628649112,-0.0004256032680839785,0.00012598197727426826,0.00017907681163263734,0.0014536116089492604,4.437622821472686e-05,3.6122792720211844e-05
2024-04-19 19:08:36.762,0.0017613148957180702,0.04669523237806805,-9.79203954395464,-0.000352561464391908,0.00012814417661651236,0.0001792264472124467,0.0029216870145378766,8.596253746006802e-05,6.383829822097706e-06
2024-04-19 19:08:36.819,0.0018014682549802473,0.042693720315913335,-9.819770603619236,-0.00038165974746960966,0.00012884122729177092,0.00017994824167821922,-0.001163930099146333,2.8079672600087276e-05,2.8733350477919314e-05
2024-04-19 19:08:36.877,0.0019453705803288964,0.013581694284502736,-9.846844242709636,-0.00039517509949958234,0.00013216709613145318,0.00018034431470130167,-0.000540592270984447,0.00013312579237600785,1.5825880605071063e-05
2024-04-19 19:08:36.932,0.001385744192367288,0.014572957878901296,-9.817949774940091,-0.0003963932691651119,0.00013467162633071098,0.00018077404718086704,-4.871104361199119e-05,0.0001001831762123759,1.7222574900687618e-05
2024-04-19 19:08:36.988,0.002020386199990163,0.01989902717540936,-9.786781203815861,-0.00042163583381741524,0.00013203676770443603,0.00018200603966427888,-0.0010097282028672923,-0.00010523252474185663,4.909935565583799e-05
2024-04-19 19:08:37.075,0.0031848573336665234,0.022161424606239745,-9.795327485015894,-0.00041211396841076334,0.00012874811484246928,0.00018249738957427556,0.0003808481728808071,-0.0001316235434403439,1.9650040900892736e-05
2024-04-19 19:08:37.131,0.0021916275709776907,0.026970079663000943,-9.81842335244679,-0.0004043132358690162,0.00012740294379505772,0.00018303762638647875,0.0003120167484408424,-5.3872534157006104e-05,2.1627865193931992e-05
2024-04-19 19:08:37.187,0.001090812485730029,0.021915840130047548,-9.820032025853513,-0.0004680156635683938,0.00012777010655224823,0.00018400263514536388,-0.002548099535138998,1.5135003791363069e-05,3.828281839919527e-05
2024-04-19 19:08:37.243,0.0011423109097849693,0.0226995345788414,-9.804954286615672,-0.0002675950671027249,0.0003904997930282198,0.0014737007068977032,0.007998617209481385,0.010493898035316484,0.051591785223149514
2024-04-19 19:08:37.301,0.41106960373536006,0.12227696880855327,-9.808690380078545,0.0003598369969637067,0.001552220102722146,0.006480039192923333,0.02485483300318631,0.04650354344859299,0.20024889158550105
2024-04-19 19:08:37.387,1.3204907487658522,-0.02592349066155441,-9.84111325638669,0.0007429383638353823,0.004358883913825545,0.0147133924805336,0.014616508242940546,0.11241349752908497,0.32929897466169133
2024-04-19 19:08:37.452,1.2376416450619243,-0.4635277492459198,-9.854246859842362,-0.0020567775613417176,0.007018063504287123,0.024588617570007302,-0.11319033173179133,0.10722115603472622,0.39483224109915127
2024-04-19 19:08:37.509,1.4347363511408993,-0.22725495740072538,-9.816557261492665,-0.004413668514576009,0.007152258213659447,0.03513961269749821,-0.09716867031062701,0.005883219499298443,0.4215921685173271
2024-04-19 19:08:37.592,1.4106351023028696,0.9169042759054638,-9.702309598384621,-0.0022954832282678656,0.005915309207527451,0.04651594074598928,0.08021325703567089,-0.05339214223823669,0.45589393261283495
2024-04-19 19:08:37.654,1.1079729503191817,1.4247891118355378,-9.721434027149217,0.0001888461574760487,0.004204952522673562,0.05794932078173435,0.0941630200397851,-0.07279786588833997,0.4585368700473095
2024-04-19 19:08:37.711,0.4360727758708302,0.5052607037334974,-9.841380545952909,-0.00016879293339266158,0.0035972908938318652,0.0692744974109912,-0.017324681059314482,-0.023427914566300046,0.4538537462081165
2024-04-19 19:08:37.768,-0.18141323973929954,-0.2893699930500056,-9.776518588324592,-0.0007870980203635574,0.0040863024373841254,0.08062636718261984,-0.02519731895761311,0.020987667974308254,0.45528889744272694
2024-04-19 19:08:37.826,-0.13389698961633587,-0.2557616615314173,-9.797616582663315,-0.0024266728544897077,0.004777988204552592,0.09188066161086894,-0.06537339712681868,0.031934607766525215,0.4516794881395908
2024-04-19 19:08:37.929,0.01947441977151166,0.19830517207420661,-9.859646109079987,-0.0029995480159233025,0.005339139868383046,0.10298437384660902,-0.02324517815929579,0.023329180984150016,0.44624274420445115
2024-04-19 19:08:38.035,0.08562907053429392,0.8091812472606021,-9.877773836472569,-0.0005708187949750064,0.005576014646922145,0.11401634180392085,0.095118938923808,-0.0005907608979516124,0.4444306421789302
2024-04-19 19:08:38.139,0.1814688527910863,0.7304174067527869,-9.82855846988365,0.001423649557325508,0.005390857601749704,0.1250706225281623,0.07609507620549548,-0.015562379547880605,0.445830796773256
2024-04-19 19:08:38.197,0.06381334084600174,-0.20685115341385005,-9.783087951189385,0.00011995807813150922,0.004593126676093021,0.1361001193264839,-0.05775163426278891,-0.02483936015805972,0.44468969603182285
2024-04-19 19:08:38.254,-0.11044526821215761,-0.7032954080919813,-9.685913478972775,-0.001205973411479795,0.004643837314689186,0.14718965725059177,-0.05440072322709918,0.00896430365342872,0.4478713216469987
2024-04-19 19:08:38.311,-0.4119766043776815,-0.19034758693968581,-9.724914845106513,-0.0010645762579736121,0.005295664317684983,0.15834515531244286,0.006996641286188148,0.024819659640599488,0.4515891050885598
2024-04-19 19:08:38.402,-0.2775652187705728,0.19144165055618143,-9.905483941380233,-0.0009170436434379092,0.005976550044043699,0.1693230617060038,0.007447671267839877,0.025961011762394307,0.445206320742284
2024-04-19 19:08:38.459,-0.27718965568423976,0.1722760557213908,-9.927877405358712,-0.0007877237964954555,0.006065647949127108,0.1801648706300823,0.0030090909036424186,0.0027322302834136567,0.44048070302265174
2024-04-19 19:08:38.518,-0.09747788254509493,0.13173575054700648,-9.817198383922578,-0.0007414780898782519,0.0055716692243124285,0.1911544142818664,-0.0042524664995609645,-0.01966068050829226,0.44732625541346327
2024-04-19 19:08:38.625,-0.09519778380162365,0.1308795231715956,-9.755342828554582,-0.0006373934645585018,0.0050887467056318905,0.20214087398370068,-0.0019001093714112282,-0.01961410815910412,0.44819320727792333
2024-04-19 19:08:38.681,-0.34190795972262883,0.14585950301137318,-9.721565623022759,-0.0005049482286556972,0.0050423800201829395,0.21313811608914066,0.00254558408845306,-0.0026640879829000906,0.44971092124677253
2024-04-19 19:08:38.738,-0.4907855130743131,0.16668123143539504,-9.801042080062306,-0.0009015613594114201,0.0053788035421804764,0.22408095227966915,-0.015075739776431653,0.016634765849078977,0.4485112505275063
2024-04-19 19:08:38.797,-0.5343885940347627,0.11288025098560117,-9.879026651540435,-0.0018101671659435997,0.005696196679086345,0.23467936480105944,-0.035168009031935406,0.02029099529312794,0.4354075687385782
2024-04-19 19:08:38.855,-0.5664681412024655,0.23117879238899947,-9.836821442769939,-0.001836970590696048,0.005704869492153343,0.2451886277459464,-0.003547694664200879,0.00038135973372717505,0.4330101056897777
2024-04-19 19:08:38.910,-0.2994084646740633,0.524639386095471,-9.819602220505743,-0.0011256859096052067,0.005475067257372664,0.25596837095153313,0.02284115136908376,-0.015789775896167896,0.4455257649863256
2024-04-19 19:08:38.968,-0.23684185328526933,0.4866114149874242,-9.836129283865361,-0.0007785894382160933,0.005331047622582244,0.2667930265130216,0.00954394048234956,-0.008861800426866183,0.4486370463678202
2024-04-19 19:08:39.027,-0.5227630233086746,0.20369775789921576,-9.786400572297694,-0.0013048947735266666,0.005168868576507503,0.2775279172195817,-0.02439813459217554,-0.0005944061796872537,0.44611633869511175
2024-04-19 19:08:39.085,-0.5714863194541053,0.2226841675751912,-9.774822463732262,-0.0012288094137394374,0.005442604209591984,0.288285388025655,0.003462931596128376,0.009808819022421263,0.4486684169685543
2024-04-19 19:08:39.142,-0.5507212125295476,0.27532851238105993,-9.851401762644304,-0.0017129405803091864,0.005610455119655595,0.29886596470436844,-0.019204287140808435,0.011987555923132066,0.44265681408783264
2024-04-19 19:08:39.227,-0.5977001630396505,0.2589120857724767,-9.830401091510007,-0.0019820222640145216,0.005541143530846184,0.3093403273879091,-0.013685298215075517,0.0004534073275961623,0.4397365447223001
2024-04-19 19:08:39.289,-0.4695659253933528,0.41075314161282944,-9.800561610768883,-0.0007372611449282816,0.005085381560670353,0.3185337694946835,0.039745497042440014,-0.03241067452172936,0.3875336908038893
2024-04-19 19:08:39.346,-0.8304344619604223,0.3777571745304243,-9.845079945308084,0.0009512864088246223,0.003454424453569231,0.32430842638116253,0.0425168056620906,-0.08286868710879546,0.24422051140854895
2024-04-19 19:08:39.404,-1.7571249957071853,-0.16802843313133337,-9.758436775132756,0.0014146157565359634,0.0006151814429591354,0.32645296277114305,-0.019311752148165925,-0.11330259923733448,0.09076352829215421
2024-04-19 19:08:39.463,-2.259222403894791,-0.47108230810244783,-9.662512044619664,0.0005920902372015375,-0.0023522667620964233,0.32596185451651644,-0.06989812576385579,-0.10144996070257277,-0.020786576374502624
2024-04-19 19:08:39.522,-2.3257441296121564,0.03772407692840517,-9.941515506229093,-0.000864680945867175,-0.004377221209874219,0.3227261638527599,-0.08201724152002203,-0.057273171085889356,-0.1366604406096743
2024-04-19 19:08:39.578,-2.798393177596804,0.8313173528088397,-10.09333923947038,-0.001006241939869427,-0.004906451583441989,0.31669889538909246,-0.013288274079585846,-0.017560622901855966,-0.2544078956412022
2024-04-19 19:08:39.636,-3.005734769820726,1.4755937428513721,-9.74397436069074,0.00043447695619080475,-0.004882698778622868,0.30785503264391634,0.05318858386731627,-0.016919386733096946,-0.3726409756047358
2024-04-19 19:08:39.694,-2.748599046442144,1.3169932858739617,-9.5241645949591,0.0032880008806440908,-0.003822718815063168,0.2973822408250017,0.11960097596880102,0.004352309003449509,-0.4400999000869004
2024-04-19 19:08:39.751,-1.586827272266903,0.1655035788251017,-9.813098888408351,0.0030735699210760062,-0.0040054970859179796,0.28674747560258307,-0.012475074519589244,-0.005193254613817543,-0.44472605058508363
2024-04-19 19:08:39.808,-1.2548822022518216,-0.6969304271510786,-9.996456178073524,0.001646824275005525,-0.004742562110010185,0.27601917172174806,-0.06537001598002706,-0.011964820164135623,-0.44690148801341484
2024-04-19 19:08:39.866,-1.1499058059574228,-0.5163219330239402,-9.728297408536852,0.0002652109080409906,-0.005426101296376549,0.26520998416885105,-0.0630355351199158,-0.010454419905707028,-0.44880830833422913
2024-04-19 19:08:39.926,-1.1251779491783116,0.25228230190333223,-9.598113699346968,0.0003308206948537713,-0.0053990988677105655,0.2543729660477607,0.0004434454273823373,0.0008583361138403047,-0.4489062515576267
2024-04-19 19:08:40.012,-1.0620792728641135,0.6855598408638551,-9.817878994427781,0.0013792925173851688,-0.005045634910554107,0.24345239549752004,0.041796035801026706,0.0029956853295896517,-0.4512593626156999
2024-04-19 19:08:40.073,-0.8328582754118629,0.473097205843234,-9.988700030908266,0.002155516611090682,-0.004552500055296924,0.2325582396513843,0.03269759982147781,0.011144451585515915,-0.4488590883031437
2024-04-19 19:08:40.130,-0.783045085614734,0.03710407032692913,-9.8717111130643,0.0018782727416867156,-0.004386882296885888,0.22173453863347375,-0.011338001351430583,0.008675294055996478,-0.4445398770336179
2024-04-19 19:08:40.190,-0.5575104206260001,-0.2746453312801552,-9.643185891394987,0.0010458454846249909,-0.004767524241019277,0.2109096271175817,-0.03800830813264321,-0.0074350906842758566,-0.443323203051596
2024-04-19 19:08:40.247,-0.39924323059487643,-0.06612963429365297,-9.656963318115912,0.000649739148818483,-0.005098545714380379,0.19992111473623445,-0.020578942685334743,-0.009390835092919764,-0.4490198881026853
2024-04-19 19:08:40.305,-0.4960847229926653,0.3139745465459721,-9.909320990205398,0.0007819422249152784,-0.0051880529802592204,0.1889058808932777,0.002112708088225334,-0.0044303195139471716,-0.44919667944106045
2024-04-19 19:08:40.362,-0.41176497261038647,0.3849710613351556,-9.954050176165477,0.000994894734187724,-0.005181009369759004,0.17789961349278838,0.006055187213124971,-0.0013184756016408768,-0.4478868246638046
2024-04-19 19:08:40.449,-0.298785852279441,0.2636801260719668,-9.780013469252095,0.001492373726332813,-0.004904222475277186,0.16682724070332863,0.019260333453702833,0.007099623714665477,-0.4497439711001725
2024-04-19 19:08:40.508,-0.2776454187371616,0.14903738030322697,-9.712165225930114,0.001571789625836673,-0.004728897271311327,0.15574013603963002,0.002087046471685409,0.006055367406395793,-0.4493953205203318
2024-04-19 19:08:40.564,-0.15393804493281962,-0.054292615813776535,-9.8109330047317,0.0010704435683273582,-0.005026830023847076,0.1447061337474507,-0.023956623779295243,-0.008758539125977306,-0.44630992951005916
2024-04-19 19:08:40.621,0.021492802332031616,-0.030782148307874273,-9.850048457875408,0.00021699444934364492,-0.005329733145386523,0.13366318657496493,-0.03789634728566586,-0.0067874169560709074,-0.44587240338677286
2024-04-19 19:08:40.679,-0.034626239895878146,0.2854240722572406,-9.802812710457063,0.00018309430450778565,-0.005407652695455893,0.12263229523130187,-0.004154222914271169,-0.0026534411042011775,-0.4448901880625238
2024-04-19 19:08:40.749,-0.003162427887987511,0.5590631200934582,-9.766066541830643,0.0007936843187477258,-0.00540153060788239,0.11164493743795416,0.021853220091912158,-0.002794292079318314,-0.4426662737874892
2024-04-19 19:08:40.807,0.1079626213702432,0.41164228987544726,-9.831233321323154,0.0010942928594170358,-0.005245668862072878,0.10054228547761233,0.010261035443048445,0.004642239342111035,-0.44669615477354657
2024-04-19 19:08:40.864,0.03730389985488831,0.1705567509751238,-9.883167218378253,0.000986073210202476,-0.005105876592010461,0.08940147263021879,-0.006064237760094316,0.005802277007313342,-0.44763788643816577
2024-04-19 19:08:40.934,0.13336741488730708,0.05077670025865483,-9.811492636440207,0.0005825348596338896,-0.005125714816109351,0.07837905525120581,-0.01842976226043996,0.00061140086953381,-0.44237004970141436
2024-04-19 19:08:40.992,0.29444785088594966,0.09967615405413428,-9.717702217769984,0.000118609522603441,-0.005409503574115404,0.06727137688314294,-0.02179515986418214,-0.009712723529163598,-0.44538592666131743
2024-04-19 19:08:41.064,0.28350208558039147,0.3287296760685616,-9.766313807962458,0.0001737624644431239,-0.005631832244743852,0.05609941877163045,-0.0009176754412953509,-0.008915431397127251,-0.44773456449857035
2024-04-19 19:08:41.149,0.2359276234337047,0.4723526756896298,-9.92232802692919,0.0004901737080500889,-0.005673689424501259,0.044910953418070526,0.009991240701523147,-0.002444119545457761,-0.4481753883100212
2024-04-19 19:08:41.208,0.23906224261301162,0.37625091167744573,-9.899054090630488,0.0006053671205354087,-0.005457863179668533,0.033831313054320133,0.002559528850459005,0.008271486850586245,-0.44355756561573945
2024-04-19 19:08:41.279,0.2931973233790477,0.216073828701847,-9.745506199988707,0.00041557108007919105,-0.00519798008675847,0.02270486830348424,-0.009555558271115006,0.010552657026479196,-0.44519568040065916
2024-04-19 19:08:41.336,0.34965840690296257,0.17599729072455148,-9.68421502607412,0.00014939531692150545,-0.005148419647519297,0.011525919667273865,-0.01290260186096532,0.0022220263246720633,-0.4471647924459072
2024-04-19 19:08:41.392,0.4243738885975272,0.2874849664170916,-9.85483694579761,1.7996878519184925e-05,-0.005294250178568755,0.0003196295776726968,-0.007695731468606902,-0.0057397550676615994,-0.44822870393829045
2024-04-19 19:08:41.448,0.45751141843259,0.36314000775326005,-9.940790751035951,0.0009698496217242712,-0.004413813318552648,-0.009474536399211253,0.036353887517366235,0.034834498243037304,-0.39200105449880074
2024-04-19 19:08:41.519,0.6765257595080754,0.3117124867650337,-9.795116726727269,0.0020327308171852196,-0.0018508863512575917,-0.01566208781174605,0.04108757587163189,0.10240909189904576,-0.24791025941442948
2024-04-19 19:08:41.576,1.5778600070896929,-0.25546250713771407,-9.547006583868214,0.0016657821657921322,0.0011863335841602312,-0.01786694097995149,-0.01647179033972942,0.12109854566072316,-0.08837548206789006
2024-04-19 19:08:41.632,2.274936841780526,-0.514079665620287,-9.722143136123847,0.00011165068257916088,0.003919678521831758,-0.01839561317688643,-0.06402538917460512,0.10820518626316002,-0.021237104785223285
2024-04-19 19:08:41.688,1.8734161317867948,-0.09069474041421734,-10.236956158573959,-0.0004935376879771957,0.004501117880078806,-0.018576868024502747,-0.02459846661757916,0.02281278325540602,-0.007336720157921778
2024-04-19 19:08:41.760,1.8987568357618538,0.5112654461296855,-10.09697624021602,0.0010399372314039222,0.002867484022760938,-0.018721571000978498,0.06255917955973207,-0.0642002030504487,-0.005440666944944569
2024-04-19 19:08:41.816,1.6491746561528113,0.4620443722798834,-9.42845919090191,0.0008851328056079488,0.00016775484797510766,-0.018755764139972857,-0.004169042258972429,-0.10808749979142053,-0.0012815032470852926
2024-04-19 19:08:41.889,1.2107046328057196,0.12801657550377274,-9.388867785379052,-7.107854236439549e-06,-0.0008266521439229191,-0.0187311367893596,-0.03493651563292596,-0.04043866208108266,0.000979216225724906
2024-04-19 19:08:41.959,0.2782359652605055,0.2488942625875516,-10.000911066265344,0.00012090802189725632,-0.0002871385076311047,-0.018714401866381104,0.004715701721079986,0.021672761921551452,0.0006630991933874513
2024-04-19 19:08:42.017,0.311406528396315,0.4648978848501182,-10.297657246533298,0.0003755726178705621,0.0011389479825033336,-0.018713091856796617,0.009117251175643262,0.05722412919222242,2.9042372888241847e-05
2024-04-19 19:08:42.073,0.5082891808843722,0.45391005141482443,-9.721384667055107,0.0005811937569011075,0.0022615819924294623,-0.01873624458800861,0.0073852402293335916,0.04505097670475838,-0.0009435896097003412
2024-04-19 19:08:42.143,0.8393554316767239,0.2899841660617921,-9.448831172762075,0.0009738691324008486,0.0020377016988000116,-0.018764386286622657,0.01587432263101312,-0.00866037725285987,-0.0010815666754961913
2024-04-19 19:08:42.202,1.087195246529805,0.10434468799822118,-9.787607380032561,0.0004665107327650319,0.000797764999374668,-0.018793191228817067,-0.01935923388307448,-0.04997012441799582,-0.0011680419684744322
2024-04-19 19:08:42.277,0.9103601715263271,0.029916800883825083,-10.001505901965498,-0.00029179454763127367,-0.0005148225042992798,-0.018782256759003853,-0.029339989613265085,-0.05306437732777638,0.00039901847698947885
2024-04-19 19:08:42.336,0.5550665866505393,0.31197411563649785,-9.90084390626937,0.00021639095035591964,-0.00046509702062723,-0.0187735736289798,0.020286634483320454,0.002370536741140883,0.00033633225607515105
2024-04-19 19:08:42.392,0.09028579960151037,0.48134493960082353,-9.7380749912543,0.0008371881867157798,0.00044654535300781137,-0.018767838684576217,0.024142865637617365,0.03692561761026016,0.00018747167577565772
2024-04-19 19:08:42.448,0.2511444469603088,0.248434511218653,-9.703565300552333,0.0005778149099700472,0.0016110037440460214,-0.01877251560705489,-0.011246907709485733,0.046375332452124524,-0.00021845987258957422
2024-04-19 19:08:42.507,0.43504634930299235,0.04827537621064653,-9.801497031118396,0.0005182065410634364,0.001760683021869973,-0.018782564743373996,-0.0024955876146085525,0.005941166944263917,-0.00040913071485579333
2024-04-19 19:08:42.564,0.772071549435473,0.10086321738755881,-9.937006973859523,0.0005579591145518844,0.0009870469254627328,-0.01880328288263453,0.002171876745382483,-0.030910588857269355,-0.0008075740429813891
2024-04-19 19:08:42.620,0.6872432503854802,0.09244261234223541,-9.80891799530497,0.0001956783510730759,-0.00030790110730887475,-0.018810738665361745,-0.013514806870491978,-0.05206131262627467,-0.0003008430201346581
2024-04-19 19:08:42.678,0.5090283977701809,0.14321720638747557,-9.683252317974466,0.00023378059422901625,-0.0006459673793016308,-0.018805697684917952,0.0017783226946777011,-0.013491540708796807,0.0002043240224293254
2024-04-19 19:08:42.736,0.039392218916673986,0.2531226656910093,-9.808502532324168,0.0007779933004401315,-0.00014005338557470878,-0.018786429132664723,0.021384207548652362,0.020642935844809307,0.0007409922756221663
2024-04-19 19:08:42.792,0.07729522691382414,0.13232563377234316,-9.903850215397439,0.000598482820744712,0.0009820515367964255,-0.01877729884934471,-0.008022692312300144,0.044741592407056996,0.00034007340827120025
2024-04-19 19:08:42.850,0.1591600707688708,-0.016163520791338933,-9.858773180472262,0.0002468451777434652,0.001514479585188198,-0.018786230446007652,-0.014462356029604426,0.021029192349972636,-0.0003766700813324825
2024-04-19 19:08:42.908,0.5054693399891851,0.0853438975746033,-9.739179819172088,0.00048466401174686666,0.0011830705207035096,-0.018788932613421325,0.009760233292724843,-0.013075366012874215,-8.696547256059404e-05
2024-04-19 19:08:42.968,0.5481188361727999,0.1609797854080095,-9.71535174596781,0.00046832117452674067,0.00020752743747876415,-0.018798713843048823,7.966862337152706e-05,-0.03902730593287338,-0.00037258566925448813
2024-04-19 19:08:43.026,0.433226003747409,0.08128226432301291,-9.842915551747481,0.0002831854046691897,-0.00044483361563264637,-0.018789921755505527,-0.006913422024930851,-0.026228940823027007,0.0003578902271436069
2024-04-19 19:08:43.084,0.1214424541629244,0.08919532769310827,-9.922401694541342,0.0005448311952301852,-0.0001982284151393883,-0.018799565198272347,0.010278565547892957,0.010058903056144403,-0.00039586138536597097
2024-04-19 19:08:43.142,-0.05850361789699224,0.09163518117424638,-9.819424710431452,0.0006153471936751352,0.0006196139899601548,-0.018806370491249405,0.0022053315843991177,0.032760772667069796,-0.0002926090527200804
2024-04-19 19:08:43.200,0.05369478003180466,0.03593446956379763,-9.707795740014332,0.0003074072455038451,0.0013465965839754297,-0.01881274861251393,-0.012861923369460683,0.028842452111346433,-0.0002718526069230103
2024-04-19 19:08:43.257,0.2612637813906624,0.015021838512893288,-9.754658585891512,0.0003519766035185106,0.0012307327715071086,-0.018809851272296698,0.001869501215669856,-0.004600157956010225,0.00012005570019732715
2024-04-19 19:08:43.314,0.45830886234878376,0.10365292799799998,-9.89734753522582,0.00038713591648582895,0.000343744547376167,-0.018814596552413288,0.0020735596925173048,-0.03544687898871868,-0.0001732726596665662
2024-04-19 19:08:43.372,0.40027011409283075,0.09838774373001659,-9.849239511125521,0.00032367557130633454,-0.00044095987473566643,-0.018804561255799903,-0.0019472264057649549,-0.031430246153884164,0.0004112201128768856
2024-04-19 19:08:43.453,0.10270387668824037,0.09137625895888618,-9.76223172817955,0.0004819035580464752,-0.0004941409621818597,-0.018808543878708513,0.006367925093483917,-0.0020079308563049777,-0.00016118241960203864
2024-04-19 19:08:43.513,-0.0882885486036856,0.07592719233323651,-9.792672098217274,0.0006929487380464115,0.0001674324834075631,-0.01880842739534323,0.007942598599987584,0.026617029400355655,-1.7561048417372417e-05
2024-04-19 19:08:43.569,-0.06858657472379011,-0.02894332291222227,-9.840355625508225,0.000318329798378381,0.0009753394929745972,-0.018809939812830342,-0.01558984984673159,0.03202871033527586,-7.313163630107073e-05
2024-04-19 19:08:43.627,0.12081286776326014,-0.004432807480498979,-9.808831475441897,0.0001857653386230825,0.0011510894017599817,-0.01881053426298788,-0.005433840811196405,0.006929010783773688,-3.0366069050269267e-05
2024-04-19 19:08:43.686,0.3371665108641684,0.14230584326307477,-9.772069939993724,0.0005167574008311703,0.0006407570138803188,-0.018809986526591396,0.013621314324807607,-0.02016062209455431,4.806740827642213e-05
2024-04-19 19:08:43.757,0.32574261694064044,0.13034079146844532,-9.818093384874274,0.0005536824686482151,-0.00012400234614586326,-0.01880790927313662,0.002052165885932977,-0.030557129904267562,0.00010156057643218746
2024-04-19 19:08:43.825,0.1700702879300018,0.018678334913186188,-9.847234746246626,0.0003458485166407296,-0.00039589078007981637,-0.018799296513868448,-0.00810720550804302,-0.01102984829673963,0.00034940535216316154
2024-04-19 19:08:43.892,-0.06398648862011179,0.002820581587637159,-9.812546893544596,0.00048330061318091434,-4.104257743640165e-05,-0.018794438975255602,0.005230285072236195,0.014294871506985043,0.0001853965667549232
2024-04-19 19:08:43.951,-0.09671053171531566,0.0190922904975416,-9.76526262422242,0.000355735441856082,0.0006745119272671024,-0.018793705080485664,-0.005639653954997079,0.02852123448017454,1.9628357722631094e-05
2024-04-19 19:08:44.007,-0.0005239740609212991,0.038341540491866354,-9.794054925910382,0.00025622175350591055,0.0010388957360201745,-0.01879515587401457,-0.004253701555677932,0.014497959577476491,-6.458194727865695e-05
2024-04-19 19:08:44.064,0.21237765041295423,0.09300960186252864,-9.839101320324309,0.0004944093698654456,0.0008190537042139723,-0.01878922312235428,0.009690900478702852,-0.008612939894235424,0.00025167609927225117
2024-04-19 19:08:44.123,0.26440366545264893,0.10880168367106387,-9.842008350470637,0.000571187590377797,0.0002391640466186471,-0.01878576368931465,0.003506382431971312,-0.023133707028328846,0.00015461302845723196
2024-04-19 19:08:44.182,0.18034286893614446,0.010635307666763485,-9.796861280091175,0.0003536567475528007,-0.00016838261588478787,-0.0187802148863345,-0.008393419456385191,-0.016462369477125035,0.0002258537165774352
2024-04-19 19:08:44.240,0.0015828719527563363,0.0021511929732297157,-9.781056364221616,0.0003569387182810204,-7.412396959762658e-05,-0.01878548190105761,6.0433539472905864e-05,0.003772070633676948,-0.000212071248342837
2024-04-19 19:08:44.298,-0.09626109510723889,0.029346637590971295,-9.798267949641062,0.00037541615438998685,0.00046101302829303764,-0.018783525861410775,0.000336823978275232,0.021415614850330375,7.029695160040848e-05
2024-04-19 19:08:44.355,-0.06357967275072512,0.06318683290385782,-9.837592857221853,0.000334490102160593,0.000912749472863408,-0.01878528734353674,-0.0019760890183211323,0.018035501312109965,-7.734124273214297e-05
2024-04-19 19:08:44.432,0.1040047072533145,0.058878032837268265,-9.83042633035058,0.0004336238128844102,0.0009160538206145273,-0.018782219877337945,0.0039620510483467115,0.0002066936776843182,0.00012624404339705667
2024-04-19 19:08:44.489,0.20233817288780417,0.059235611394323706,-9.80076296269995,0.0005013719545959959,0.0004814369353074476,-0.018783067713753286,0.00303598625345241,-0.01733072776207005,-2.2378784306089358e-05
2024-04-19 19:08:44.545,0.18343182457143156,0.02150502694068698,-9.78227779372021,0.00031226133467733715,3.0504253580069826e-05,-0.01877871091594466,-0.007224302462757073,-0.01817615463688902,0.00017656603900402428
2024-04-19 19:08:44.603,0.04082452402870336,0.0077208959708368,-9.810730535213596,0.00022248552065314917,-4.777842143655976e-05,-0.01878039607724391,-0.0035316004465408674,-0.003198204803225211,-6.681493811347491e-05
2024-04-19 19:08:44.661,-0.07604278755820038,0.0757636760166113,-9.83397411039781,0.00042074547999173596,0.00026522973743892185,-0.01878757854368419,0.007693944389067432,0.012666933597554504,-0.0002930238074259631
2024-04-19 19:08:44.717,-0.07691277185886738,0.07409401999258435,-9.81821585378702,0.0005014166534249811,0.0007106900288739629,-0.018788975850041807,0.0028915606400954797,0.017875864582428683,-6.402684904279263e-05
2024-04-19 19:08:44.775,0.012527079657762253,0.03332263810057934,-9.778443538862634,0.0003866516229063648,0.0008614759817333651,-0.018789303409999084,-0.004703100144443519,0.005944116210268818,-1.8743363099250353e-05
2024-04-19 19:08:44.834,0.14038273135943405,0.005300040468874328,-9.806648176033928,0.0003790632235769594,0.0006285905828824322,-0.018783569185199647,-0.00012859982008005277,-0.009319392477204569,0.0002328523626132597
2024-04-19 19:08:44.892,0.1554468862031552,0.04218806224959793,-9.827675482992595,0.0003381520629609792,0.00021489070093320457,-0.018780738781171737,-0.001325352882946868,-0.016575777187067077,0.00011807311639091162
2024-04-19 19:08:44.963,0.08234746492188241,0.05399761737865304,-9.816115348952,0.0003242530059391937,1.2646662581139452e-05,-0.018775603559486796,-0.0004039361945184633,-0.008098709209741874,0.00020800014169990942
2024-04-19 19:08:45.022,-0.03837062176547319,0.05831204066881763,-9.80273345490973,0.0005193986319322629,0.00015412190483665684,-0.018778971624533767,0.00769822116876966,0.0058045009422269585,-0.00013767039187927773
2024-04-19 19:08:45.081,-0.07498540162733879,0.0399623312778269,-9.80857275404296,0.000522222393160624,0.0005167973807142861,-0.018782851191194612,-0.00015940937695393823,0.014506501398550628,-0.0001627622449805577
2024-04-19 19:08:45.138,-0.027435591043471225,-0.025866019358702946,-9.817240572833207,0.00028120355271753705,0.0007577356109987192,-0.018782622220612864,-0.009820074882557334,0.009454751470974156,1.423723072731383e-06
2024-04-19 19:08:45.195,0.0773745101097971,0.011328821900282133,-9.796122927589092,0.00031492489196362087,0.0006805247374183389,-0.018780227438530542,0.0014065579794219746,-0.0030625264690999294,9.784056595085562e-05
2024-04-19 19:08:45.252,0.1295179250847067,0.10522219827623841,-9.793260694056475,0.0004568212004610258,0.0003677545100132861,-0.018777766444791927,0.005909770464239606,-0.012401962905422625,0.0001081739646870834
2024-04-19 19:08:45.324,0.09282614014614196,0.07119832642432684,-9.829363970740173,0.00046702848449735324,0.00010954402754223155,-0.018775815773357348,0.0006021550027588045,-0.010318894234793832,8.310708730308378e-05
2024-04-19 19:08:45.384,0.0005647170114645803,0.015936875359068493,-9.831055252455345,0.00041857736339356665,0.0001269672709225849,-0.018776067505953904,-0.0019507874023096834,0.0006604141754649806,-1.0562089145423344e-05
2024-04-19 19:08:45.442,-0.06160327862547126,0.013461523801184178,-9.8050149157124,0.00043975937590269966,0.0003768808366580014,-0.018780437735109574,0.0006595049245176149,0.010010612783474692,-0.00017913590700945842
2024-04-19 19:08:45.501,-0.04535634548693471,0.015760775910993504,-9.795054328117732,0.0003661588024415454,0.0006361399758180459,-0.018782486251378856,-0.0031382075747967016,0.010313217828930868,-8.689236372526825e-05
2024-04-19 19:08:45.558,0.02672490264041579,0.024303921173443106,-9.807261451920184,0.00039569662820779916,0.0006690602471784414,-0.01878108542143414,0.001156533871361736,0.001338792265700502,5.624920665104301e-05
2024-04-19 19:08:45.614,0.09369828067674552,0.04999297670034755,-9.816187805844864,0.0004326179775317594,0.00047099655981667387,-0.018777317094669184,0.001625314238664602,-0.007893349410788075,0.0001552767151668761
2024-04-19 19:08:45.671,0.09093267422134162,0.03711881896516097,-9.808377735105097,0.00037478656063011243,0.00022093189468430744,-0.01877482259793029,-0.0021250506302724135,-0.0100442231196763,0.00010258412589164617
2024-04-19 19:08:45.728,0.030423759345603315,0.03491157092574042,-9.803646896047525,0.0003330521365351489,0.0001467260916490724,-0.01877257645416114,-0.0016133686530416318,-0.002999021515331065,9.05055924584864e-05
2024-04-19 19:08:45.786,-0.0389378124659849,0.034122423874569485,-9.81352366461446,0.0003899112544859699,0.00029235614108679835,-0.018774657547080527,0.0021646356869481345,0.005866838989102195,-8.522171067245286e-05
2024-04-19 19:08:45.843,-0.05037299740190118,0.05174304433037037,-9.821936301031382,0.0004457421884742869,0.0005223709491333808,-0.018777300868422588,0.0020601643014212965,0.009240852995228586,-0.00010924984364577177
2024-04-19 19:08:45.901,-0.005865381257250492,0.01823196448445186,-9.812758490023498,0.00040461498579766824,0.0006313249364350652,-0.018777422164891176,-0.001726627962358388,0.004326498936242185,-7.5019968324246336e-06
2024-04-19 19:08:45.959,0.05757399957770344,0.010479200718904597,-9.796403441935242,0.0003728717806455268,0.0005284747799519571,-0.01877549598233253,-0.0011922958960616584,-0.004137095866082611,7.785460346480587e-05
2024-04-19 19:08:46.017,0.08275534499096909,0.024664254407920434,-9.797832928887122,0.00033359976572359804,0.0003208385502297787,-0.01877173704836807,-0.0014147147420833176,-0.008333430511663785,0.0001524324477302523
2024-04-19 19:08:46.074,0.04360885864641576,0.04837958101545588,-9.81350559695737,0.00032287837905284805,0.000193001422331158,-0.018767417541162446,-0.00033282554019988214,-0.0051205792436669825,0.000174363680520736
2024-04-19 19:08:46.131,-0.015008236980483917,0.05433254660832707,-9.823417290119192,0.0003914349004123195,0.00024832972808884555,-0.018768622677930252,0.0027002557332428535,0.0022641890639926447,-4.857967045926033e-05
2024-04-19 19:08:46.187,-0.043661873241764924,0.0427251250300497,-9.818457066322388,0.00044893848192314144,0.00042884484711092026,-0.01877076273973737,0.0021642563419351814,0.007262465634329216,-8.832973287107957e-05
2024-04-19 19:08:46.274,-0.021859542024146573,0.005870020907827009,-9.80615345750579,0.00037220121715832936,0.0005719908128657313,-0.018772660471836268,-0.0031763824286680444,0.005667185594788715,-7.938963780129186e-05
2024-04-19 19:08:46.331,0.02605492558296425,0.008291779674409644,-9.799058083675837,0.00029860811890497144,0.0005532299272167501,-0.018772016885200787,-0.0029291317696923686,-0.0008055578214577423,2.4311002526110477e-05
2024-04-19 19:08:46.387,0.05944218741723599,0.03763170501290173,-9.802743978854322,0.0003113932977069033,0.00039583451299411433,-0.018769436003387215,0.0006294601691313414,-0.006285075973579583,0.00010556842204147356
2024-04-19 19:08:46.444,0.048910276878550304,0.06045497470295177,-9.812383725837273,0.00036059321495539467,0.0002480383950707756,-0.018766854750769273,0.0020785855068883776,-0.00587382795743707,0.00010621673930753018
2024-04-19 19:08:46.502,0.003721747020231745,0.051640399854597265,-9.816977008557108,0.0004506893822058587,0.00023613464608288252,-0.01876615885338046,0.003612141191195542,-0.00040842033873314656,2.891799064872335e-05
2024-04-19 19:08:46.560,-0.03192886898493429,0.00621940905620939,-9.816334209746639,0.00041446836475542175,0.0003625187819929083,-0.01876715460173452,-0.001543439717613565,0.00502726944142764,-4.228012238802099e-05
2024-04-19 19:08:46.618,-0.02930732977752451,-0.007688513504467729,-9.811151213600569,0.0002814456964073607,0.0005119508975598,-0.018768747363368678,-0.005432111715370148,0.005876356251068214,-6.734428266723662e-05
2024-04-19 19:08:46.676,0.0059229844425117886,0.010660958759949234,-9.805140737386255,0.0002467781491336968,0.0005492192990646407,-0.01877005912293134,-0.0014144074184966097,0.0014644344069502948,-5.356529315658804e-05
2024-04-19 19:08:46.751,0.04293880218865945,0.06933917973477098,-9.801941830758906,0.0003346950197345038,0.0004509143696176282,-0.018769258910545553,0.0035898476865739806,-0.0038654853281515572,3.528056918435085e-05
2024-04-19 19:08:46.824,0.046645033388822206,0.06804349681851493,-9.807310160088521,0.0004033558363841668,0.0003125298762615837,-0.018766574063012787,0.002849809166178845,-0.00548281284337885,0.00011091513880946185
2024-04-19 19:08:46.881,0.017842152454726538,0.03634879331159083,-9.815010334769704,0.00039942569328711925,0.00025525547918645773,-0.018765571903802927,-0.00011419501997333717,-0.002293506746512899,4.097521512283631e-05
2024-04-19 19:08:46.939,-0.017685510176890528,0.014281720317877843,-9.805173799336083,0.00039391595445609884,0.0003224350200121236,-0.01876601547782127,-0.0002707710184076077,0.0026825657160096704,-1.8870436954003783e-05
2024-04-19 19:08:46.997,-0.02819262054701411,0.01340496910410265,-9.810272883322169,0.000364501062007883,0.00044866364290102454,-0.018766868683317322,-0.0012711242743486868,0.005026163526377903,-3.637098310967445e-05
2024-04-19 19:08:47.069,-0.007578161425261076,0.026648838146039522,-9.832257962371077,0.00036286191313255147,0.0005200655016752132,-0.018768139784065264,-0.00011912660787283675,0.0028543230763645134,-5.194045532859493e-05
2024-04-19 19:08:47.127,0.025565706086905778,0.03975134543363832,-9.811075124549836,0.000435307627618186,0.0004778296632447856,-0.01876873361146072,0.002929036860652434,-0.0016347585788003235,-2.1523362935239005e-05
2024-04-19 19:08:47.182,0.04097576793136022,0.02742916564560733,-9.788529948131156,0.00040173905141908646,0.00036842139207875506,-0.01876676922697511,-0.0012603985292364847,-0.004400730814168859,7.975929651346258e-05
2024-04-19 19:08:47.239,0.025529914556023634,0.015771092945551974,-9.792438988187921,0.0003900490889886733,0.00028888556641109425,-0.01876535357416155,-0.0004078280403657429,-0.003189626269013024,5.7732490435857136e-05
2024-04-19 19:08:47.296,-0.003516539241083824,0.038580900568514195,-9.810739662174393,0.00044944883367199626,0.00030666648609391803,-0.01876516494601004,0.0023622226115926803,0.0007557014726275973,7.88810415854912e-06
2024-04-19 19:08:47.352,-0.02250918951981938,0.03513038260766816,-9.849626196240134,0.00045721982340802414,0.00040129709885225977,-0.018765581711546804,0.00023976210475271155,0.003790383352611874,-1.8330008098142713e-05
2024-04-19 19:08:47.409,-0.014121164372260239,0.00294043442994621,-9.826405159061157,0.0004048012500571896,0.0004868532197555229,-0.018765883064825455,-0.0021605873255590657,0.003382290589667918,-1.4291255607767353e-05
2024-04-19 19:08:47.466,0.011913857113368728,0.015930160650953703,-9.782223404484435,0.0003497749845372694,0.0004891207598085121,-0.01876668595105877,-0.002202349080765848,4.936969225886331e-05,-3.321193025814374e-05
2024-04-19 19:08:47.524,0.031977398798528456,0.039677262182426294,-9.782594163983779,0.00035860390231082435,0.0004110704845327173,-0.01876515003576741,0.00041165824087176656,-0.003114812107418822,6.276824276130783e-05
2024-04-19 19:08:47.581,0.02912795095887476,0.05338717111217955,-9.8189494565442,0.00045013802283686027,0.00032463287063351346,-0.01876361007265526,0.0037255800065733495,-0.0033881614763636445,6.466597149157262e-05
2024-04-19 19:08:47.637,0.006743618460242278,0.034775552907268796,-9.834106451329376,0.0005009100011800092,0.00030890073282811343,-0.018763164697672204,0.0020423236382654474,-0.0005910588867098157,1.8776484376011683e-05
2024-04-19 19:08:47.696,-0.01513480831099493,0.006602177795873892,-9.814037009593203,0.0004432834812389095,0.0003710100534015935,-0.018763771820512795,-0.0023512601089813114,0.002440674239903738,-2.6097629089700272e-05
2024-04-19 19:08:47.754,-0.015276905630506809,-0.0212385290895682,-9.797503520108128,0.0003305189457370487,0.00045132126788301305,-0.018763518788986536,-0.0045700688369037425,0.003127250391912954,7.390801802420922e-06
2024-04-19 19:08:47.811,0.0026413580026726047,0.015592816985809554,-9.803328011213123,0.0003073923394305389,0.00047932328190790954,-0.01876375701755179,-0.0009459131843593269,0.0011025230118680495,-1.0296699796962348e-05
2024-04-19 19:08:47.868,0.022358247253908208,0.05284372804479894,-9.813531208326955,0.0003348030326862245,0.00043643553486468547,-0.018763330825288416,0.0011284162992202533,-0.0016946290860258904,1.81595080194384e-05
2024-04-19 19:08:47.948,0.02663045005692891,0.062301097065198985,-9.811390842887635,0.0004339106411788883,0.0003617829086834692,-0.018762149050113464,0.004019617974992354,-0.0029111747262365946,5.029555952757672e-05
2024-04-19 19:08:48.009,0.014396020354235801,0.04285112496485712,-9.806321654354775,0.0004777871259003935,0.00032243867267814125,-0.018760097014882,0.0017842504383751546,-0.001540524605874379,8.347747869553532e-05
2024-04-19 19:08:48.067,-0.0054555404541041345,-0.00427734719471102,-9.809390268960126,0.00042628501646014763,0.0003522723957361624,-0.018760109552751352,-0.0020821088707948985,0.0011544910098045887,-1.6660069290343635e-06
2024-04-19 19:08:48.123,-0.013345355878802487,-0.023867852135959117,-9.81792369790924,0.0003295876321933172,0.00042077343200808495,-0.01875960216242777,-0.0039186262614346766,0.002667003304467428,1.803742217305741e-05
2024-04-19 19:08:48.181,-0.004254507169037077,0.01280633180722555,-9.815691131539412,0.00029765444210900734,0.000464871094418012,-0.018758980079386922,-0.0013102043610222958,0.0017396410662866317,2.381871318569992e-05
2024-04-19 19:08:48.237,0.014445725931260684,0.04106690053533583,-9.80311576280845,0.0003075003707879824,0.00044652407577663926,-0.018758569424669733,0.00040752715385222163,-0.0007263586957094151,1.6842042509683547e-05
2024-04-19 19:08:48.293,0.024799828877215747,0.060463121592305415,-9.798350557949508,0.0003820881643355732,0.0003879557299941621,-0.018757611593742063,0.0030269176796973245,-0.002286340309749219,4.0544628540254915e-05
2024-04-19 19:08:48.350,0.016287669589035197,0.05457738806148926,-9.801642410565389,0.00048576675386142673,0.0003392515877270822,-0.01875664768901514,0.004182943370964134,-0.0018700129732377097,4.109132926123921e-05
2024-04-19 19:08:48.409,0.0022487675051346434,0.019351316759090728,-9.808803070104721,0.000486005137102674,0.000344897531978385,-0.018757240507636906,5.3061260779538865e-06,0.00022596550820915692,-2.3824948919585643e-05
2024-04-19 19:08:48.465,-0.009958261985561627,-0.01636541851015171,-9.839266723205705,0.0003895089292329686,0.00039445815235044496,-0.018756081680745627,-0.0038963723744395076,0.001909693181929898,4.4270475129155795e-05
2024-04-19 19:08:48.522,-0.006538857413501965,-0.004092299410589253,-9.823680295601772,0.00032459202107853357,0.0004431393828947172,-0.018755417002644346,-0.0026327538227091923,0.0018982113858250203,2.4936078921780145e-05
2024-04-19 19:08:48.609,0.007459246158258183,0.025142973742670927,-9.790724330277236,0.00036940723943113045,0.00044726254764169656,-0.018755300115462708,0.0017891979790702517,0.0001985207075437558,5.395225027508178e-06
2024-04-19 19:08:48.666,0.019092688367348676,0.05539070087459189,-9.789468907506285,0.00042673948941266104,0.00040594555753847557,-0.018754223043432,0.002323865049746723,-0.001609359036730625,4.481626684704028e-05
2024-04-19 19:08:48.722,0.018935076069405646,0.02254259049799271,-9.81459757262424,0.00044077263831505286,0.00035950100381551477,-0.018754184905195734,0.000596067684658141,-0.0018469273681444257,2.5827465212617543e-06
2024-04-19 19:08:48.780,0.006949899545760738,0.009471082562760953,-9.825540519223953,0.00039412455846294536,0.0003472366553132906,-0.0187545205098973,-0.0018563900743021632,-0.0005254869744896483,-1.3887642368536623e-05
2024-04-19 19:08:48.837,-0.004714613604650384,0.007467724325356872,-9.812845754944595,0.0003508776683887813,0.0003777239166877176,-0.01875368457119015,-0.00175245497084485,0.0011868442849841997,3.241791090627624e-05
2024-04-19 19:08:48.896,-0.006598803084679373,0.020437236646726663,-9.804421011334778,0.000354375710464927,0.00041926340266675076,-0.018753604172046412,0.00010873522317604916,0.001663912432557996,2.66850348559024e-06
2024-04-19 19:08:48.972,0.003413190367382,0.024123693347213922,-9.809526987107587,0.0003754571283674217,0.00043758350700329743,-0.01875293170213038,0.0008293538302524679,0.0007484994324382104,2.697020262703777e-05
2024-04-19 19:08:49.030,0.012625432319191008,0.033685716872057236,-9.811530075605926,0.0003969520584778014,0.00041835228100685026,-0.018752401033579735,0.0008740625152122127,-0.0007529816446281989,2.1911925415745425e-05
2024-04-19 19:08:49.087,0.01705989950238637,0.021465922399296386,-9.805470984355528,0.0003918111497277653,0.0003760043348399641,-0.01875129052328851,-0.00017385243257317644,-0.001697459106199018,4.502135390509789e-05
2024-04-19 19:08:49.159,0.012453226031214147,0.009848120985854376,-9.803487174233565,0.0003631860267735313,0.00035249432646577934,-0.018751007863956684,-0.0011271740819564606,-0.0009617014322881141,1.1233722873666308e-05
2024-04-19 19:08:49.218,-0.000817467640498371,0.020623942075813147,-9.811829495799444,0.00034901129534424834,0.00036483557288225274,-0.0187511735927477,-0.000576143473984864,0.0004829291104190319,-7.002041801781277e-06
2024-04-19 19:08:49.276,-0.005196839245945982,0.022285687042451426,-9.820690470882491,0.0003482774297992724,0.000402810621933514,-0.01875103293042068,-5.783460884797096e-05,0.0015181863930797904,5.078075972679705e-06
2024-04-19 19:08:49.333,-0.0018056535333940244,0.02379862558622388,-9.817194472367952,0.0003515631158046112,0.00042976575292118355,-0.018750290508839754,0.000111174075524525,0.001080490320588263,2.9367223424876e-05
2024-04-19 19:08:49.390,0.009654369929021581,0.022930596608123344,-9.803268592835686,0.0003535300703734187,0.0004234225741307392,-0.018750219790939725,8.342055261878942e-05,-0.00025220632470715243,2.954262900356564e-06
2024-04-19 19:08:49.463,0.015825735938862422,0.02271691465796889,-9.797101840700774,0.0003375895613782027,0.00039512748992901234,-0.018749687582086037,-0.0006162953914757571,-0.0011435530085063396,2.141743755037889e-05
2024-04-19 19:08:49.522,0.011711946462678778,0.022556077985456235,-9.806501492735395,0.0003596507118461849,0.0003681965862494823,-0.018749699547162185,0.0009024887792755035,-0.0010605012397363494,2.595234561956684e-07
2024-04-19 19:08:49.578,0.0044464142254496105,0.022172061055322306,-9.817431307687427,0.0003647916144731261,0.0003690833236679015,-0.0187493103501239,0.0002049290655296625,3.9324475841925275e-05,1.5631730967202914e-05
2024-04-19 19:08:49.638,-0.0030687799912684876,0.020534620969192435,-9.818730782014066,0.00035697224673076976,0.0003940272466963332,-0.018749612984397715,-0.0003314219807242714,0.0009917129583069959,-1.2583716475970486e-05
2024-04-19 19:08:49.697,-0.0011523643955287496,0.01098394607322407,-9.813072252583984,0.0003318786699779042,0.00041861600303731526,-0.01874945543456155,-0.0010220103084463536,0.000964559504899371,5.580131835896205e-06
2024-04-19 19:08:49.768,0.005984220220227248,0.014071540285956762,-9.806018043209873,0.00030652060561471133,0.0004235726589696482,-0.018748806457197887,-0.0010178727320451215,0.00017922102306439704,2.548230932245677e-05
2024-04-19 19:08:49.828,0.011956394775406115,0.02515141976481778,-9.80187328542067,0.0002980269669555754,0.0004036731211196251,-0.01874843351687979,-0.00032476831368604336,-0.0008022071665326828,1.5021897396007057e-05
2024-04-19 19:08:49.886,0.013021247162876887,0.0379897400453263,-9.805176407039168,0.00034084918177299786,0.0003772640130592619,-0.0187482100148869,0.0017323891216273028,-0.0010240614545027758,9.989748624179131e-06
2024-04-19 19:08:49.945,0.006256356694068953,0.04331876260741496,-9.813000168220132,0.00036197902738058853,0.00036711946261036387,-0.018748345871772445,0.0008526549339133202,-0.00038986663748731803,-4.972485241569161e-06
2024-04-19 19:08:50.029,0.0006389517617493614,0.01295653644170474,-9.814062434698284,0.00040678308844485856,0.0003815906955003113,-0.018748159248274835,0.0017809921534839453,0.0006123509124723184,7.870411917308754e-06
2024-04-19 19:08:50.087,-0.002052829653660432,0.021720852615226424,-9.798053652326821,0.00040609763993447863,0.0004086712335758407,-0.018746956206990247,-4.7741377142771354e-05,0.0010825362623046778,4.767247931302258e-05
2024-04-19 19:08:50.158,0.0023307860631366826,0.007544775877233064,-9.82643347126608,0.000356487958021925,0.00042384016420829234,-0.018745932348353277,-0.001995430885865281,0.0005694633917291922,3.994203173108143e-05
2024-04-19 19:08:50.217,0.009857173856943475,0.012733666276287307,-9.825146197264589,0.00029080735463453145,0.00041311743208805024,-0.018745032372289794,-0.0026187372200909597,-0.0004780738007610447,3.503275048020305e-05
2024-04-19 19:08:50.288,0.013553774253675958,0.0491475286556301,-9.780764394608342,0.0003748871791792315,0.00038762965243956295,-0.01874480413120079,0.0033817090484269644,-0.0009562849679078528,1.0884634105954549e-05
2024-04-19 19:08:50.346,0.009141162829666349,0.06636012394135332,-9.7913348121959,0.0004993081464289709,0.00036893729536858154,-0.018744084515866496,0.004989968793097517,-0.0006542577550451079,3.1045275725388815e-05
2024-04-19 19:08:50.419,0.0027524207268994176,0.026097322131221016,-9.84131377012748,0.0005075298617027114,0.00037563204922677986,-0.018743838608774214,0.0003237876329328955,0.0002739124174979442,9.818442229658834e-06
2024-04-19 19:08:50.478,-0.0014965447206527172,-0.022631926383901622,-9.836871547922074,0.00039142744789260237,0.00039798826652610137,-0.018744067332691707,-0.004660038544700228,0.0008070392944618523,-1.1222222650635273e-05
2024-04-19 19:08:50.536,0.002429380189712946,-0.025934587707153782,-9.797311015741096,0.00031223896182950537,0.00041382280684939437,-0.018742831372471982,-0.0031788756725948117,0.0005739124942790754,4.8000204336488615e-05
2024-04-19 19:08:50.593,0.0066868188930926135,0.03385449438790864,-9.785022401217239,0.000346705328803152,0.00041125803431484763,-0.018742517248033542,0.0013803300409300295,-7.672852354076597e-05,1.316466116217887e-05
2024-04-19 19:08:50.651,0.011359838544416372,0.046319977883272696,-9.808314032644018,0.0003985949013456437,0.0003917842555117,-0.018741597208650245,0.0020898030064885613,-0.0007398979159696707,3.796172178776715e-05
2024-04-19 19:08:50.709,0.00963220119282862,0.0416858572843901,-9.824682305512209,0.00044555590889558877,0.0003734907479926485,-0.01874136235749756,0.0018918206995625847,-0.00069640232302633,1.044662952286535e-05
2024-04-19 19:08:50.766,0.004994410154878936,0.014587257317721264,-9.813658799513616,0.0004361309281947359,0.0003708563890283343,-0.01874114273880445,-0.00037496151260234104,-0.00011241761815544588,8.695230474972393e-06
2024-04-19 19:08:50.823,0.0006287266259417999,-0.0067047627906963204,-9.801249858118833,0.0003741644571955014,0.00038897894816845613,-0.018740653376627614,-0.0024918166552205705,0.0006783290184495287,1.839846159369016e-05
2024-04-19 19:08:50.883,0.0004254187214500532,-0.002817659836046489,-9.809448756015033,0.0003359131566178798,0.0004068453043254877,-0.018740557419532202,-0.0015431778467295595,0.000685855650897197,3.007713172308971e-06
2024-04-19 19:08:50.943,0.006040796586285468,0.021042456229296264,-9.819825085987263,0.00034757333846171536,0.00040981392223376714,-0.018739925361980634,0.000464089500003254,0.0001274732577078496,2.543123152346784e-05
2024-04-19 19:08:51.000,0.009161190146474842,0.034184121900369444,-9.811125322834224,0.00035876036875418535,0.00039804646663226933,-0.018739373110863922,0.00045621446702191943,-0.0004622219822397409,2.2446780765860928e-05
2024-04-19 19:08:51.057,0.009798043141297053,0.03981567089855744,-9.797161445342718,0.0003950148982859243,0.0003810308564239916,-0.018738572322827832,0.0014626684726841855,-0.0006533167419749338,3.287717780673204e-05
2024-04-19 19:08:51.128,0.006519831012618256,0.019142974952298823,-9.802311752067972,0.0004108325170665536,0.0003674476643047864,-0.018737070788327415,0.0006427522439080989,-0.000531351931819054,6.0535191443925886e-05
2024-04-19 19:08:51.189,0.004481462113708514,0.005908363636596384,-9.817765373079075,0.00036787246949651625,0.0003778336061385115,-0.01873694068981448,-0.0017258862605364046,0.00038316858264383463,4.428925351496935e-06
2024-04-19 19:08:51.246,-0.0005685597443471451,-0.004637306077456529,-9.822734630704423,0.000351782895291437,0.0003985152660472838,-0.01873699799836437,-0.0006589693655601476,0.0008150615307717852,-2.8284905545430133e-06
2024-04-19 19:08:51.303,0.0014817645428514229,0.0202988935051604,-9.81303015680561,0.00034753607409576437,0.00041537483608307515,-0.01873838247377708,-0.0001824554668599018,0.0006710626810384403,-5.569463524643086e-05
2024-04-19 19:08:51.361,0.007485124578212757,0.02110950744970713,-9.800669551050154,0.00031956286204886324,0.0004079414771398858,-0.018736837998544552,-0.001113186040158077,-0.000318229944385052,6.142884053540786e-05
2024-04-19 19:08:51.419,0.01296800545072427,0.02131636236915646,-9.799462463918527,0.0003067143416124168,0.000394799475446397,-0.01873625723146626,-0.0005040103683608687,-0.0005352105378495709,2.31933149747416e-05
2024-04-19 19:08:51.488,0.006426347660535994,0.044122074810519524,-9.809615928409237,0.0003707483573409664,0.0003784762395733525,-0.01873578772149522,0.0025731371150626006,-0.0006048172761416171,2.0022559396165476e-05
2024-04-19 19:08:51.547,0.006215627835008538,0.01838775719053753,-9.8178289824079,0.00040674584125273725,0.0003769487560882678,-0.018734785718736796,0.0014407759388156247,-3.409471480118579e-05,4.064593225040468e-05
2024-04-19 19:08:51.619,0.00048808969337187937,0.018368218880585242,-9.815947804028784,0.0003809370336265874,0.00039940638378518776,-0.01873418618458334,-0.0010490102676478737,0.0008788153612393475,2.3255178031717447e-05
2024-04-19 19:08:51.678,-0.001549593031608359,-0.004760015282420647,-9.811418503166788,0.00030395018859222516,0.00042426054528067145,-0.018733460310002004,-0.003097570481136851,0.0009363088539154419,2.7515993845123796e-05
2024-04-19 19:08:51.736,0.006274912553680193,-0.0010229767636483862,-9.80713535084957,0.00026872755437846026,0.00041780628718850356,-0.01873318944466535,-0.0014038262500494457,-0.0002845160283827709,1.0316851831309341e-05
2024-04-19 19:08:51.792,0.013927932693720908,0.044269580837922526,-9.804030973459053,0.00028647857165433525,0.0004069445740287552,-0.018731653293142317,0.0007180296599095176,-0.00042107375534011305,6.187747249819997e-05
2024-04-19 19:08:51.850,0.006107855000230648,0.04782926235035539,-9.805162157804453,0.0003553405629854108,0.00039722033738918397,-0.01873146675326952,0.002761279279708764,-0.0003373022368226777,8.704909551169724e-06
2024-04-19 19:08:51.908,0.004805531465568423,0.041384178929322515,-9.811710659044568,0.00040550532544428243,0.00038798342140735937,-0.018730626705454896,0.002013145933915619,-0.00033181170545564025,3.454126866534623e-05
2024-04-19 19:08:51.966,0.005100877077540459,-0.006848438936092066,-9.816025569460072,0.00037835168662315343,0.00039359056979500814,-0.018730528178183384,-0.0010901575653109038,0.00020390371059324244,3.4413162051866215e-06
2024-04-19 19:08:52.023,0.00092848905661466,-0.00527096719882048,-9.813837706571702,0.0002597682360128076,0.00041943896242661714,-0.018729019360429176,-0.004761897331256877,0.0009449239724275069,5.823813464745995e-05
2024-04-19 19:08:52.081,0.0011038933210786811,0.0015539542972385703,-9.802901651758715,0.00031183660127584955,0.0004136028013979645,-0.018728748022295523,0.0020867368435028353,-0.00019439433069847877,1.1790462378481842e-05
2024-04-19 19:08:52.139,0.013533978693159495,0.06858423523067986,-9.798058588336234,0.00042800239140583296,0.0004020066715483951,-0.018728471355614066,0.004654499179632412,-0.0003767326558564291,1.3150293758442933e-05
2024-04-19 19:08:52.195,0.006373409239272474,0.03783252907327005,-9.825976098771411,0.00045460466900584844,0.0003953210338332581,-0.018727667551001716,0.0010688999318020462,-0.0002474352193394014,3.26998624062732e-05
2024-04-19 19:08:52.252,0.003779056938940385,-0.006791774417530517,-9.819704572851832,0.000355985035277901,0.0003923067923155227,-0.018728821640729386,-0.003941817159593199,-0.00019444172120010837,-4.7664648943104016e-05
2024-04-19 19:08:52.310,0.00440233887510863,-0.004501847583829214,-9.798146970844366,0.00026313961358385393,0.0003891331844970951,-0.018728551097298665,-0.0037107921302909908,-0.00019647501472714655,9.416106553625314e-06
2024-04-19 19:08:52.368,0.005657216097058651,0.021562995583639458,-9.801833238551865,0.00031046197286202455,0.00039845141018484206,-0.018728461398781295,0.0018855802096060287,0.00040811616523610554,4.1949209386951944e-06
2024-04-19 19:08:52.425,0.0005716059219125348,0.06424262450763597,-9.823070651873385,0.0004085973084453766,0.0003951121644268356,-0.018728292437652023,0.003927223698176951,-6.002602408786975e-05,8.345634770437824e-06
2024-04-19 19:08:52.482,0.008884303012815653,0.019853661218041812,-9.823056309506416,0.0004207305615145034,0.0003896423736528812,-0.01872723551814495,0.0004893257586645933,-0.0002096462897168094,4.25657497740449e-05
2024-04-19 19:08:52.540,0.006154604992463564,-0.00902769745929393,-9.799045976482942,0.00034486875984674273,0.00038570894400528173,-0.018727310570217,-0.0030309922676732782,-0.00021413824750369395,-4.112097827936806e-06
2024-04-19 19:08:52.598,0.0049944111553230615,-0.0004270521255399488,-9.790422861174154,0.0002998933496126301,0.00038068332094519353,-0.01872764901441868,-0.0017949310174936628,-0.0002346845695802426,-1.416293541916747e-05
2024-04-19 19:08:52.656,0.005633794614396457,0.021381754853209017,-9.809335600327593,0.00029341133047021195,0.0003776892177673864,-0.018727063290149604,-0.0002570013771380704,-0.00012459216586405958,2.337178095931343e-05
2024-04-19 19:08:52.713,0.00358969538186261,0.04119052068641963,-9.82742942758007,0.000347968186770207,0.00037318508395422936,-0.01872657962224543,0.002185258115482247,-0.00013925926575790164,2.022295802967792e-05
2024-04-19 19:08:52.770,0.005674674293250801,0.02196493765304976,-9.822822920080304,0.0003891885409758163,0.0003684475208895688,-0.018726638208379786,0.0016520746259957007,-0.00015859328478253613,-1.6661184870778447e-06
2024-04-19 19:08:52.827,0.004989585785937263,0.018803262371892223,-9.804343339035743,0.0003440864550465154,0.0003642495315537251,-0.01872679495417654,-0.0018006202077757306,-0.0002016768753896219,-6.865825913127726e-06
2024-04-19 19:08:52.884,0.005146505492329104,-0.004471459457347466,-9.794619400496046,0.00028465316581124733,0.00036037953056736345,-0.018725611849391168,-0.0023740330581236845,-0.00019927976832394295,4.652302924985496e-05
2024-04-19 19:08:52.941,0.0050261583737791675,0.0017008387759919023,-9.803420677804898,0.000270064932369301,0.00035605773306053963,-0.018725155766082108,-0.0005801964806286692,-0.00018376378776048183,1.8086971753851028e-05
2024-04-19 19:08:53.000,0.005597401395954248,0.04529207129477697,-9.816569089288802,0.0003328174464337388,0.00035219535947875245,-0.018724835174841265,0.0025125487524671826,-0.0001074613245825994,1.3754965363941611e-05
2024-04-19 19:08:53.058,0.004116000841391698,0.04018318950463537,-9.817925094893035,0.0003804639274165339,0.0003510593357164295,-0.01872482108408993,0.0019063757648125367,-9.745601427004836e-06,1.2381212240604095e-06
2024-04-19 19:08:53.114,0.004426457616166478,0.015692384095455904,-9.812880120745966,0.000324882582198469,0.0003496546579019806,-0.0187243045726291,-0.0022218192841034906,-9.780094765501791e-05,1.991458233338008e-05
2024-04-19 19:08:53.171,0.0053050473563409535,-0.0009127871201877546,-9.80938151452834,-0.008594353442805788,0.0005211029038544816,-0.018696741772551897,-0.3568399123508728,0.00016887050894488418,0.0009495926877060245
2024-04-19 19:08:53.244,0.00899087815744786,-0.44916310593444536,-9.718677219327038,-0.0038648025537825624,0.00043299184513910413,-0.018542729959342117,0.18921647896287738,-1.0654796549390998e-05,0.006251796037913928
2024-04-19 19:08:53.302,-0.038887815498240094,3.025352431283404,-9.854220130885741,0.001663789395353715,0.00032806034552806365,-0.018348566134123702,0.2211810979656279,-8.266446775731108e-05,0.00785246800649923
2024-04-19 19:08:53.360,0.01291871954011439,1.4244353027700443,-9.868937913965588,-0.0027622467290423277,0.00041444143389443523,-0.018237841270291055,-0.17707680885098104,0.00019425335515088038,0.004364995086012511
2024-04-19 19:08:53.417,0.045583177225633244,0.07712077055879935,-9.750771897575476,-0.005389739087783862,0.00046772296699861975,-0.01824172674146272,-0.10512192284354771,0.00021524278318929243,-0.000200381072041556
2024-04-19 19:08:53.475,0.05444164513104582,1.2473338986267068,-9.733527063941695,-0.00038458037298806115,0.00038881608658476496,-0.01824040103538131,0.2002316192006519,0.0004965441517881859,0.00013775275784370377
2024-04-19 19:08:53.535,0.0008980346137614473,1.3179931447385806,-9.841116795412304,0.0022212492783648887,0.00033189936085657414,-0.018239371540836474,0.1042574231254747,-0.0003748065668212421,8.008447114170043e-05
2024-04-19 19:08:53.591,0.0052962256048976215,-0.5151605338107913,-9.889814532938841,-0.0015465655272797084,0.0003979121900224407,-0.01823212677921298,-0.1507358769985467,-0.00010909460633413142,0.00023445173165611698
2024-04-19 19:08:53.648,-0.0004327148211831638,-1.0332658920003468,-9.772247729464775,-0.004603020997290908,0.00044867688859455217,-0.018193854613702237,-0.1222760949464874,-0.0002055277567103539,0.0014781390224412748
2024-04-19 19:08:53.708,-0.005732098089217205,0.4694724523526662,-9.697256801128297,-0.0029255378456335105,0.0004160958796001154,-0.01810162339314959,0.06711107171691846,-9.310165518648113e-05,0.0037186920029110586
2024-04-19 19:08:53.788,-0.012556231167094103,1.2695081685717065,-9.796419646947271,-0.001485340426216009,0.000390404985663267,-0.018015306144864192,0.05761594618111355,1.0161140957338944e-05,0.003476498671368577
2024-04-19 19:08:53.851,0.011370971702638028,0.6100612577394358,-9.919080505265756,-0.00278455031294349,0.00041896228898934986,-0.01800861847954373,-0.05198075771572074,0.0002052020434634488,0.0002472170951180605
2024-04-19 19:08:53.912,0.03252452203372683,0.09912097705046662,-9.850235933100775,-0.0026338474349711085,0.0004270808064887159,-0.018014079908682184,0.006021393535816382,0.0004338156075946854,-0.0002148355601636004
2024-04-19 19:08:53.972,0.004820603451888751,0.28518208810660384,-9.736151903361318,-0.0002582743975295777,0.00038664063576247175,-0.018015501632463064,0.09503677857772408,9.44599652725631e-05,-1.8292963759338242e-05
2024-04-19 19:08:54.029,0.0030234060246636034,-0.17931479691057034,-9.76555757406779,0.00017086044779226375,0.0003778056307653254,-0.018015283098806522,0.017168970261033402,-4.4095715172903094e-05,1.5323209265533432e-05
2024-04-19 19:08:54.085,0.001631336126415683,-0.949701546053608,-9.851820019592697,-0.0011508651718849443,0.00039985807278854565,-0.018011526276675294,-0.0528763993746052,-7.063281564989121e-05,0.0001296061120186367
2024-04-19 19:08:54.142,0.001879278740358629,-1.0193203033550313,-9.843430014313263,-0.0017671510468668709,0.0004028087689947673,-0.018001364433475366,-0.02464973747821493,-0.00032670175064334657,0.0003959680713324018
2024-04-19 19:08:54.202,0.0034088981665024243,-0.5315569064259509,-9.774564766788107,-0.0023766160868921886,0.000415794100715668,-0.017981535472660896,-0.0243843484201157,7.861558916019083e-05,0.0007835183494324366
2024-04-19 19:08:54.260,-0.003242013661464697,-0.11654189467091428,-9.768512008530914,-0.003209564986770683,0.00042935928499723266,-0.017950608313481338,-0.033322914353675126,-6.0519333129672374e-05,0.0012229908728108503
2024-04-19 19:08:54.317,0.0011868083793343605,0.22448158222384687,-9.830522815364727,-0.0031090864967111822,0.00042774379563950774,-0.017914376395462447,0.004019132820741298,3.0148231227547853e-06,0.0014512486312361775
2024-04-19 19:08:54.374,0.0034003359791503077,0.3914543590842073,-9.855520722799417,-0.002483196765611206,0.0004188949012796086,-0.017887916059144214,0.02503761275459582,9.194031179384572e-05,0.0010693858175158547
2024-04-19 19:08:54.431,0.006824228330389359,0.16817059733280867,-9.811670984704774,-0.0025024452154414176,0.00042447763521337233,-0.017891264189115453,-0.0007737610481226162,0.00020983733031781194,-0.0001337461758105666
2024-04-19 19:08:54.488,0.01305556361847834,-0.19058721631770206,-9.775439371776386,-0.002707954614245385,0.00043221174994461574,-0.017893900012543672,-0.008224582143263305,0.0001625372626786812,-0.00010851684686921214
2024-04-19 19:08:54.546,0.0039621702222390216,-0.18670215199532944,-9.797789342992699,-0.0016473271284510648,0.0004185785740174804,-0.017894722881745786,0.04242817680705663,0.00021394676431414682,-1.462937436099592e-05
2024-04-19 19:08:54.604,0.002768042229892456,-0.35917792451281644,-9.841931050700616,-8.765236171999293e-05,0.000395200127213244,-0.01789471449170401,0.062393759808224085,0.00018142790892713702,2.5601496136175604e-05
2024-04-19 19:08:54.664,0.0037299296527254716,-1.048182914073273,-9.837929157787574,-0.0010942892110900326,0.0004147417242049882,-0.017893893205475034,-0.04027303276442371,6.0989186415645095e-05,1.6642164061805974e-05
2024-04-19 19:08:54.721,0.004720508153219436,-1.3316991106451912,-9.781134502181914,-0.0024113208841334455,0.00043680654166737505,-0.017893540324777826,-0.052688711443841726,-6.018812240014838e-05,-8.50443242766294e-06
2024-04-19 19:08:54.777,0.005006450033800459,-0.8797068604127971,-9.770988208874687,-0.001148317066245687,0.0004088019107485571,-0.017892315009810596,0.05053216921203803,-0.00021608758717197213,7.027741207533148e-05
2024-04-19 19:08:54.854,0.0051358378582378955,-0.6489804695844613,-9.829771610611722,0.0004885382918548911,0.00037590285984453255,-0.0178897156148537,0.06548724490826655,-0.00014418188879883413,0.00012987919609977344
2024-04-19 19:08:54.913,0.004250464578966546,-1.1893365200085915,-9.860788562428004,-0.0008927434791935864,0.0003977132776922358,-0.017885918016244017,-0.05525809556644362,-0.00011625528248671447,0.00013036659345120097
2024-04-19 19:08:54.971,0.003812514234728275,-1.4610248680577909,-9.799368866004224,-0.0029601345245744664,0.0004326252714890735,-0.017882072806540607,-0.08270761132487266,-8.31531403626941e-05,0.0001191585747341614
2024-04-19 19:08:55.027,0.004654864375792715,-0.7501981097645093,-9.754705617679296,-0.0026437269525153664,0.00042739088633749075,-0.017878798165891347,0.01265802227704252,1.661900123879965e-05,0.00013649223824767888
2024-04-19 19:08:55.108,0.003479766149460095,-0.1171976184918745,-9.80581743633683,-0.002030424850463362,0.0004165040020917392,-0.017877720972339133,0.024535997941756513,3.0939394812103997e-06,5.345460255938736e-05
2024-04-19 19:08:55.167,0.0053633840215108605,-0.16543426696476748,-9.863717758050557,-0.001821130815795429,0.00041287399216662383,-0.017876534889831815,0.00837301616463246,4.398371699786195e-06,5.093126612728724e-05
2024-04-19 19:08:55.244,0.00427412506261416,-0.49400513216921893,-9.843583403134016,-0.0022542923909787405,0.0004214342957680816,-0.017875679012464073,-0.017329863354473903,3.2560014918618255e-05,2.7090735713090174e-05
2024-04-19 19:08:55.300,0.005032027081331232,-0.5744543963371085,-9.773399961699361,-0.0024877788164632984,0.00042685577939831446,-0.017875031734878217,-0.009341876794806046,4.9820648857243414e-05,2.206215454143452e-05
2024-04-19 19:08:55.357,0.004722658876450044,-0.4502055909037729,-9.77365439901466,-0.002862043950365237,0.0004339431009417818,-0.017870325428369183,-0.01497340557833423,1.5325915987110726e-05,0.000181884358055177
2024-04-19 19:08:55.443,0.004842927345028295,-0.3487715273747706,-9.827668404941365,-0.0028149523650586876,0.00043335465098064135,-0.017864844344278506,0.0018837067110717507,9.50639392313603e-06,0.00022012278556617982
2024-04-19 19:08:55.501,0.004675027411941636,-0.27013431999194404,-9.851510913644866,-0.002461616075578042,0.00042770875008100935,-0.017865874785601945,0.01413529458908492,2.6780581024056336e-05,-3.507646035521252e-05
2024-04-19 19:08:55.557,0.006619973991545046,-0.4273681261848896,-9.815872832565088,-0.0022405684123787766,0.00042415305751578904,-0.01786756153300565,0.008843086030532004,1.590744115871408e-05,-6.367978345982602e-05
2024-04-19 19:08:55.613,0.006557066168029474,-0.6655267734854804,-9.785298165818485,-0.002632603050716344,0.000431385298960865,-0.01786758565388664,-0.01568409624739117,9.076033894219775e-06,-7.649587924115578e-06
2024-04-19 19:08:55.669,0.005977715216267643,-0.7599863619456958,-9.79828937005926,-0.003006045136061219,0.0004373426142753552,-0.017868537737901386,-0.01493960024565588,-2.8511164711395248e-05,-4.467097634834876e-05
2024-04-19 19:08:55.725,0.007105470175632877,-0.46550025844200216,-9.826776663618526,0.00041806698911832385,0.0003774409511475116,-0.017869681575725403,0.13698562119914473,5.177645007319007e-05,9.944665445319595e-06
2024-04-19 19:08:55.781,0.004013763955649839,-1.0051441745484686,-9.856114347780279,0.003141809535467679,0.00032928693720689643,-0.01786923009298032,0.10896691644286784,2.1278101065502543e-05,5.647802546803462e-05
2024-04-19 19:08:55.836,0.005549347421438943,-2.4063192329161978,-9.811574127161615,0.002009332343441558,0.0003500815067175754,-0.017869092114694497,-0.04530686968376752,2.21762088895534e-05,-9.904491815835282e-06
2024-04-19 19:08:55.893,0.006817958541377205,-3.1535943170699197,-9.743440899145337,-0.0008667894047677567,0.0004018419579798015,-0.017868925586747113,-0.11506355021210475,1.4431655012903122e-05,-3.6571041690131584e-05
2024-04-19 19:08:55.949,0.005898862310744166,-2.2439555945417515,-9.73954862289412,-0.001801207843383974,0.0004186971186336268,-0.017868701309010228,-0.03738285255523623,6.234581229888762e-06,-6.352825135272765e-06
2024-04-19 19:08:56.006,0.007296783093291014,-1.0286735522445745,-9.821034501425215,-1.5757977979736882e-05,0.0003870477089236957,-0.01786905529070189,0.07142925261976911,1.039904713805999e-05,1.4610829586719333e-05
2024-04-19 19:08:56.062,0.00604516700086351,-0.7645930382476701,-9.894222668739635,0.0019327477524779342,0.00035224495706378487,-0.017869424910788682,0.07795270867963856,8.869641482786242e-07,1.4029853859564123e-05
2024-04-19 19:08:56.118,0.006734960412153148,-1.5204044384503492,-9.851540902230342,0.001710783645228069,0.0003563250554159968,-0.01786938076416401,-0.008880077775962529,4.520754307836931e-06,-1.3876691617003066e-06
2024-04-19 19:08:56.173,0.007343715680787493,-2.099983992894009,-9.745896889790203,-5.519762951346072e-05,0.0003880528606124923,-0.01786914756412166,-0.07065068197223745,6.653158520904316e-06,-1.6963877530572008e-05
2024-04-19 19:08:56.253,0.0067273535920964475,-1.7273791128803653,-9.728464860327813,-0.001021646033791477,0.0004053482251024205,-0.017868996901317536,-0.0386641324987371,9.365127580927666e-07,-9.311658984002482e-06
2024-04-19 19:08:56.312,0.006922915975753891,-0.9080883790156736,-9.819290506854825,-0.00017417968068180522,0.0003902957709632386,-0.01786913427033017,0.03390400730646199,3.7373924574420153e-06,7.993343974450031e-06
