Timestamp,Linear_Acceleration_X,Linear_Acceleration_Y,Linear_Acceleration_Z,Orientation_X,Orientation_Y,Orientation_Z,Angular_Velocity_X,Angular_Velocity_Y,Angular_Velocity_Z
2024-03-06 14:26:21.199,1.8987928726743947e-05,-0.006711858213275188,-9.810476749824067,0.00040758405057420087,5.9955060633804145e-06,-2.8619101303029784e-08,-0.0,0.0,-0.0
2024-03-06 14:26:21.253,1.9005893200243218e-05,-0.006716141751218141,-9.810475259708019,0.00040758405057420087,5.9955060633804145e-06,-2.8619101303029784e-08,-0.0,0.0,-0.0
2024-03-06 14:26:21.307,1.900960933857474e-05,-0.006718738312993637,-9.81047833307237,0.00040758405057420087,5.9955060633804145e-06,-2.8619101303029784e-08,-0.0,0.0,-0.0
2024-03-06 14:26:21.360,1.901623177419316e-05,-0.006722584838753145,-9.810475445972525,0.00040758405057420087,5.9955060633804145e-06,-2.8619101303029784e-08,-0.0,0.0,-0.0
2024-03-06 14:26:21.416,1.895890749825868e-05,-0.006725309048103973,-9.810479078130392,0.00040758405057420087,5.9955060633804145e-06,-2.8619101303029784e-08,-0.0,0.0,-0.0
2024-03-06 14:26:21.468,1.9061194738740747e-05,-0.0067281556299611115,-9.810476842956321,0.00040758405057420087,5.9955060633804145e-06,-2.8619101303029784e-08,-0.0,0.0,-0.0
2024-03-06 14:26:21.518,1.913104943522519e-05,-0.006728051083550108,-9.810475352840271,0.00040758405057420087,5.9955060633804145e-06,-2.8619101303029784e-08,-0.0,0.0,-0.0
2024-03-06 14:26:21.573,1.9026520610153956e-05,-0.0067234284859984395,-9.81047833307237,0.00040758405057420087,5.9955060633804145e-06,-2.8619101303029784e-08,-0.0,0.0,-0.0
2024-03-06 14:26:21.626,1.91441342567184e-05,-0.006723893237768971,-9.810475352840271,0.00040649251636391695,6.035259723551127e-06,-2.8822229574634922e-08,-4.366137202002376e-05,1.590141616862862e-06,-9.03328429926085e-09
2024-03-06 14:26:21.680,1.783492531103103e-05,-0.006665527600398024,-9.810478519336876,0.00040649251636391695,6.035259723551127e-06,-2.8822229574634922e-08,-0.0,0.0,-0.0
2024-03-06 14:26:21.730,2.03734482710884e-05,-0.006598873601779291,-9.810475539104779,0.00040649251636391695,6.035259723551127e-06,-2.8822229574634922e-08,-0.0,0.0,-0.0
2024-03-06 14:26:21.784,1.938206463192142e-05,-0.0067299952648070096,-9.810478146807862,0.00040649251636391695,6.035259723551127e-06,-2.8822229574634922e-08,-0.0,0.0,-0.0
2024-03-06 14:26:21.838,1.916150951268203e-05,-0.006756958643677164,-9.810475352840271,0.00040649251636391695,6.035259723551127e-06,-2.8822229574634922e-08,-0.0,0.0,-0.0
2024-03-06 14:26:21.889,1.9486414933138775e-05,-0.006767064902848508,-9.81047898499814,0.00040649251636391695,6.035259723551127e-06,-2.8822229574634922e-08,-0.0,0.0,-0.0
2024-03-06 14:26:21.941,1.9241813983049276e-05,-0.006770020078367881,-9.810476842956321,0.00040649251636391695,6.035259723551127e-06,-2.8822229574634922e-08,-0.0,0.0,-0.0
2024-03-06 14:26:21.994,1.9427253726683922e-05,-0.006772615730648718,-9.810475259708019,0.00040649251636391695,6.035259723551127e-06,-2.8822229574634922e-08,-0.0,0.0,-0.0
2024-03-06 14:26:22.048,1.945951058899847e-05,-0.006771333616028527,-9.810478146807862,0.0004053972811562595,6.074093787194201e-06,-2.9183753744780065e-08,-4.380941186828223e-05,1.5533551859420772e-06,-1.5355095216576913e-08
2024-03-06 14:26:22.100,1.81581446136559e-05,-0.006749130122928754,-9.81039768054124,0.0004053972811562595,6.074093787194201e-06,-2.9183753744780065e-08,-0.0,0.0,-0.0
2024-03-06 14:26:22.149,2.0922424398438407e-05,-0.006601792442987055,-9.810558519942235,0.0004053972811562595,6.074093787194201e-06,-2.9183753744780065e-08,-0.0,0.0,-0.0
2024-03-06 14:26:22.205,1.9412189333222907e-05,-0.006753831118919992,-9.810478239940117,0.004842251909892629,4.2772684173504976e-05,3.1234327824164515e-05,0.17747488836208916,0.0014739946278839405,0.0012444955873896248
2024-03-06 14:26:22.262,0.003650912122273908,0.12195555621564656,-9.850790535667617,0.002286933368732876,4.965565508354463e-06,9.822489691460278e-05,-0.10221347953055782,-0.0015029645205280248,0.0026786990919040717
2024-03-06 14:26:22.317,0.0270254057919603,-1.277754542361933,-9.772360792019963,-0.001588907319848198,-0.00017519211862622162,0.00014115052742964368,-0.15503414381077854,-0.00719379570348607,0.0017048568074555597
2024-03-06 14:26:22.371,0.03186750935083291,-0.164849571766259,-9.751091527467903,0.0024752841026241985,-0.0001459100931792943,0.0005979623098394091,0.16257060948958996,0.001193432569832415,0.01824114023274065
2024-03-06 14:26:22.427,0.11377093124649662,0.29431412606731017,-9.848695059974261,0.007207956645301574,-0.00015420396384444062,0.0017211257928280248,0.18931600291007267,-0.00012137663954698815,0.04490125862028668
2024-03-06 14:26:22.482,0.25988271911763594,-1.4305901718115446,-9.904801002568703,0.003699932528819091,-0.00016580740145070842,0.003463977279980146,-0.14031193428415265,3.534990752629105e-05,0.0697367102889086
2024-03-06 14:26:22.566,0.12692066499921129,-2.250240985525502,-9.761436471870859,-0.0005949959759108739,-0.0001880208336427287,0.005694697719833657,-0.17178287089290378,-0.00034664064289355464,0.08925934366486268
2024-03-06 14:26:22.620,0.10465792778117645,-0.46544854821369425,-9.672083153132125,0.0005407407958016009,0.0001290561941020661,0.008570368525626227,0.04548638902383491,0.012486421126819993,0.11501465193416106
2024-03-06 14:26:22.674,0.09986915864322606,0.8840853044871702,-9.781261720839565,0.0012231618577235248,0.00039684523532831407,0.011490322104496664,0.027342321785502402,0.010620418554937127,0.11679477531884047
2024-03-06 14:26:22.759,-0.06188329713787124,0.4868311896422965,-9.895635019356956,0.0014619828149529776,0.0005237710744274586,0.014487502104881604,0.009549511485514632,0.0051428409002077635,0.11989379209262656
2024-03-06 14:26:22.813,0.036726826949214406,0.19118430865600264,-9.880033876857043,0.001792363866274661,0.0006534585423318586,0.017685790047246124,0.01320838345986372,0.005225892730149634,0.1279459502971265
2024-03-06 14:26:22.866,0.07234688766562261,-0.019524682084323106,-9.752387928430192,0.002851881348766042,0.0008927564723832647,0.0213343017771948,0.04241978369252339,0.009239242696471755,0.14597076560044597
2024-03-06 14:26:22.952,0.1660547089413366,-0.3415742552184621,-9.746727350090543,0.0025929402630140864,0.0009107818064720875,0.02554805950762877,-0.010485056503576562,0.0013818303070706965,0.16858448618324748
2024-03-06 14:26:23.008,0.07294213227457484,-0.5483630813271578,-9.830335153874854,0.0018929841260548336,0.0009576561190216627,0.030110807746341145,-0.028108017938687762,0.002939217409286846,0.18255030370597516
2024-03-06 14:26:23.062,0.08818089572272665,-0.15520906735615578,-9.846676790918673,0.0017787554059403017,0.0010656902281096902,0.0350766158287772,-0.0046388986659885445,0.004816196168170488,0.1987255584946992
2024-03-06 14:26:23.115,0.09668029720248174,0.14186014940741692,-9.797575511339724,0.001973085188280744,0.0012149338655032026,0.040240591219217366,0.00774007995846984,0.0061092171105903495,0.20670266683592495
2024-03-06 14:26:23.172,0.1230164663644137,0.21814099255407635,-9.782567435027158,0.0025428087540529634,0.0013995641473279878,0.04515592562721411,0.022811407268348384,0.006972706685963406,0.19680415675380175
2024-03-06 14:26:23.228,0.22424309380687982,0.09688231924921434,-9.826424064908524,0.0026824774679860956,0.0015120254974163852,0.05005981088862633,0.005510050099469727,0.004780580074797263,0.19637413731043263
2024-03-06 14:26:23.284,0.23703934604860222,-0.15759838694937736,-9.835418591642428,0.0020976849490120216,0.0015104515902705745,0.0559085958524523,-0.023695874764964625,0.0016156249434890685,0.23424270043317913
2024-03-06 14:26:23.340,0.11278275388579774,-0.11569996164115329,-9.793298598883462,0.0021681230095880752,0.0015944592990442762,0.06230028178541438,0.00262247301965023,0.0037735773860214632,0.2561123561025436
2024-03-06 14:26:23.396,0.10189586999203137,0.2312808835282223,-9.786295519116269,0.002148333993320158,0.0016651852493469554,0.06939409855362734,-0.0010505805954049595,0.0035105386014404423,0.28436229319358414
2024-03-06 14:26:23.452,-0.01661552808606817,0.23047168430261697,-9.81169110127143,0.002458367730808359,0.0018867623926145834,0.07665082797100671,0.012485657464262556,0.008731244825909187,0.29104775585011683
2024-03-06 14:26:23.509,0.280095884020077,0.2811215156895832,-9.840862358097006,0.002424229097041796,0.0020561210310697173,0.0835171099203889,-0.001358343013750846,0.007566723032235026,0.2755173100898684
2024-03-06 14:26:23.562,0.40898136889277975,0.20792003810273302,-9.823599736202894,0.0028486219166489013,0.002332472152450031,0.09016162119195416,0.0172803611939435,0.010405188983491055,0.26679689079588853
2024-03-06 14:26:23.615,0.3181814632473936,0.05431681380592519,-9.801126737280317,0.002278812275963604,0.0022904403042053752,0.09778373887262368,-0.023489708360474176,0.0011362941661482483,0.30618529738921485
2024-03-06 14:26:23.674,0.16028628418026444,-0.02493957754045869,-9.775278346110884,0.0018023998405479566,0.0022145717996077414,0.1069184220202542,-0.020010120796779236,-0.0004218558577743936,0.36727438601630075
2024-03-06 14:26:23.727,-0.04697698636543816,0.3857115294127662,-9.811532869573517,0.001776576250153264,0.0023163909010300867,0.11678361769731661,-0.0014346462667982722,0.004955466036142855,0.39709107347470085
2024-03-06 14:26:23.783,0.09738629570538077,0.5160095143327627,-9.836067164652585,0.0020377823154131744,0.002617404217632769,0.12678255721757792,0.010826624599225454,0.011671913800726762,0.40296251143441714
2024-03-06 14:26:23.843,0.309836106152142,0.5788478638080499,-9.821961353607447,0.0018863753310557176,0.00278342783535348,0.136439850942023,-0.006152311446629272,0.008217042997363148,0.389653608228622
2024-03-06 14:26:23.899,0.44662554780682273,0.45523097162551285,-9.805980976573164,0.0022730567472387746,0.003205058293370878,0.14590371239921798,0.016523351358631096,0.015620316109619302,0.3823996662525034
2024-03-06 14:26:23.955,0.49445592719851783,0.35479633868009475,-9.816449228079142,0.002092026367297605,0.0033511843833663804,0.15557952172095985,-0.007494195251527894,0.0078349136562865,0.39147023667137304
2024-03-06 14:26:24.012,0.3940429205808892,0.20444377052911342,-9.793693479636342,0.0014237128390412533,0.00323048052083998,0.16642840431376774,-0.02846843336692529,0.00022173601631862288,0.4396015339335679
2024-03-06 14:26:24.067,0.19724109961251163,0.32753582972397344,-9.79006197369363,0.0011161193751384663,0.003274386429630409,0.17858890498665903,-0.013347464072417468,0.004582706772839226,0.49378150075176885
2024-03-06 14:26:24.123,0.10796382044800105,0.6230725901884007,-9.817419852420304,0.0010651835214011128,0.003554739825666392,0.19109462334893698,-0.001690765705754744,0.01224363969227784,0.5089884425888659
2024-03-06 14:26:24.182,0.34082607435329837,0.885148123938074,-9.822687226387627,0.0008115657991920992,0.0038258779488086533,0.20325297437904224,-0.009675789568048217,0.013331076611114868,0.496034557038891
2024-03-06 14:26:24.236,0.6258154427245375,0.880164128133682,-9.818966499746505,0.000770714195957654,0.004202552477722499,0.2153351033049944,-0.0004986130941970299,0.015867746623928775,0.49422505878746276
2024-03-06 14:26:24.289,0.4119657599271706,0.7833555725392567,-9.814555663110372,0.0007739701676840976,0.0045067633620542846,0.2278699512518805,0.000564632396400385,0.012728644956904778,0.5141802767052536
2024-03-06 14:26:24.347,0.37001079752058663,0.6648668121470069,-9.79477744592945,0.0005644671782547142,0.004513926934900198,0.241975821117659,-0.010577498079507362,0.0030867019665748096,0.5804422073457685
2024-03-06 14:26:24.400,0.3959326496649858,0.5887917807294234,-9.814093168341786,0.0006878450578087131,0.004793637477597069,0.25675335769843843,0.004749907080192591,0.010756364492188253,0.6104134077356023
2024-03-06 14:26:24.456,0.4886237585034113,0.6356069865487923,-9.889285169212572,0.0003372244690126497,0.005071975986929793,0.2715681616694998,-0.013662112452663428,0.015338992296376293,0.6143609675569391
2024-03-06 14:26:24.513,0.5703459339331438,0.8190805692941797,-9.74490475189859,6.134436407013626e-05,0.005427270968330563,0.2862604965632824,-0.009954283961006423,0.017588448576935926,0.6119436341903121
2024-03-06 14:26:24.571,0.4914766060511517,0.828734251190492,-9.71249277206405,8.627027441641109e-05,0.0059708860937447575,0.3007576524336769,0.003716345975637009,0.02161034825686067,0.6066420441215963
2024-03-06 14:26:24.627,0.5570897014936668,0.824403944849408,-9.842009654322181,0.0005894378165299453,0.006604257418045822,0.31511427777093853,0.02310781501871953,0.01961958705944969,0.6037528524188416
2024-03-06 14:26:24.681,0.5835202652872228,0.5882808746515543,-9.898299812513134,0.00021981823220579885,0.0065699907807698875,0.33075926875193595,-0.018552587882828937,0.004831219547096365,0.661125640580664
2024-03-06 14:26:24.737,0.5873115687138494,0.36659606999354477,-9.804389905162262,-0.0008269995690916634,0.00627873576768003,0.3474620979508018,-0.047778791473610194,0.0037370779706824542,0.7099047812824468
2024-03-06 14:26:24.798,0.8267877696397005,0.7315482363952696,-9.729395530932424,-0.0025541931045633347,0.005717720759141702,0.3645108590940311,-0.07713629080801193,0.002624689593396883,0.7293053227033419
2024-03-06 14:26:24.853,0.7341055840352692,1.3393653386201407,-9.747680838097144,-0.0031140523106394946,0.005856503165594601,0.3816138445367621,-0.023682702296063587,0.01272405254031569,0.7372864773383019
2024-03-06 14:26:24.907,0.6083860762625095,1.8950288797295904,-9.846974441599384,-0.002247542322557718,0.006892680741569327,0.39891460746976776,0.042415432661169886,0.025448606809390217,0.7520132765839594
2024-03-06 14:26:24.961,0.5975369429454356,1.7067340905373556,-9.891845188584082,-0.0011372976513099732,0.008064177247494546,0.4162514991730185,0.05343834459999467,0.026850019218927334,0.759916794089373
2024-03-06 14:26:25.017,0.6918614168791731,1.032705055393318,-9.821792504832692,-0.0006141029669026422,0.008504719986833404,0.4341171347901767,0.020032311662332124,0.00960389123593243,0.7897922399115584
2024-03-06 14:26:25.076,0.7870709033304676,0.3080697700273634,-9.744534364928256,-0.001646019593923042,0.0077132278868193484,0.45226337601273603,-0.057146632991099296,-0.009154004915213518,0.8092302973097533
2024-03-06 14:26:25.131,0.7383674963780285,0.28493501406005983,-9.748730159192124,-0.002863802411406389,0.00692808164997924,0.4711330289812922,-0.06401164726841205,-0.005553897900755032,0.850419974478604
2024-03-06 14:26:25.190,0.6034547933133371,0.8576014835967909,-9.804719407073511,-0.004387718014157943,0.006282810580148371,0.48921636335889207,-0.07219272306837692,0.005138916223683815,0.8241720339600606
2024-03-06 14:26:25.249,0.7581042347817533,1.7255743378733366,-9.809633902934072,-0.00436878188109017,0.006846392272774761,0.507578115672476,0.004823231085561052,0.018828018930261176,0.8473882867741136
2024-03-06 14:26:25.302,0.6374332751062727,2.025361239636854,-9.817200339699893,-0.003775339623051124,0.007808807408229985,0.5259656974991013,0.032557638872738395,0.021651430276667237,0.8595500386341661
2024-03-06 14:26:25.380,0.6088405092704428,1.7016347970037027,-9.822858962262229,-0.004332371291176058,0.007477792385691452,0.544136076890833,-0.033347505263939516,0.0005926074196610873,0.8601068369687874
2024-03-06 14:26:25.437,0.6526273714527526,1.3666711389550679,-9.797643032223178,-0.005375694856762066,0.006170105617485733,0.5619751605169806,-0.07040226317876754,-0.02223665441200189,0.8558122933820389
2024-03-06 14:26:25.494,0.5438405994923129,1.631696665923549,-9.77844530837544,-0.005770892530246511,0.00542460254508865,0.5796224507021379,-0.03646227026440419,-0.01733543374070459,0.8593946124011076
2024-03-06 14:26:25.548,0.3434787341231336,2.1350973319355737,-9.79798613144337,-0.00511920481530236,0.006101249136399754,0.5971371278524317,0.03005623042453006,0.0063208371245627995,0.8667706241315791
2024-03-06 14:26:25.602,0.21022156745074325,2.133908370668695,-9.828520099395396,-0.004421320020573103,0.00719643604344201,0.6144990614114981,0.041198280231654366,0.019045662134892363,0.8734252633090263
2024-03-06 14:26:25.660,0.23985130271649321,1.5443477162516364,-9.821919164696823,-0.005195845300211091,0.00690160742441964,0.631574796346313,-0.03923122440326367,0.009777204755539334,0.8730503060274453
2024-03-06 14:26:25.715,0.3050850675820015,1.1495328195149321,-9.781495575926943,-0.006950941769489984,0.004610226110561716,0.6481667341410967,-0.11916948640162534,-0.028929437123584104,0.8625355581924536
2024-03-06 14:26:25.770,0.3275841668184917,1.769436229727,-9.75092286495765,-0.006807990180761426,0.004184273885260887,0.664481442364974,-0.013238352799695631,-0.01888977184657863,0.8648026557733122
2024-03-06 14:26:25.822,0.038445046440980055,2.4371595361315306,-9.814022667226237,-0.005553439481653582,0.005319357131096684,0.6804955277827893,0.061040993666257135,-2.110507085519222e-05,0.8659889129413167
2024-03-06 14:26:25.880,-0.11070152451677458,2.208238281197704,-9.882049165680533,-0.00524913929081961,0.005847387427231607,0.6961185825889961,0.01652138945880888,0.007234914511423901,0.8617509858339567
2024-03-06 14:26:25.965,-0.12418769175785381,1.4438731957808761,-9.846803730179564,-0.006172426543539387,0.0049645979242444625,0.711304662465189,-0.05780592985668951,-0.0005457279588751738,0.8546511347344987
2024-03-06 14:26:26.020,-0.08992062803734836,1.313125966610923,-9.736505247129344,-0.006620970047047769,0.0045511148057266184,0.726198123676157,-0.031138608093015042,-0.00014821543460450813,0.8567652987955205
2024-03-06 14:26:26.076,-0.11904350265747063,1.6689442818833904,-9.732568826190185,-0.006114066030028451,0.005435543475218178,0.7408698665161155,0.032570320283192025,0.009298582825761537,0.8639353587318511
2024-03-06 14:26:26.158,-0.16689810225572138,1.6387569987432966,-9.854866468721825,-0.005847235145901004,0.005704856392228093,0.7552261280238202,0.008081961046419811,-0.0004898817426669009,0.8655068931119898
2024-03-06 14:26:26.214,-0.10739670905542359,1.2358997128616223,-9.906444973099331,-0.006130669853084498,0.004853327292062924,0.7692355654178921,-0.039913100069102814,-0.014140989498677233,0.8653967561522979
2024-03-06 14:26:26.265,-0.13398607207155816,1.1378890061449825,-9.811607468508203,-0.006616342699325289,0.003892784871466125,0.7828852996098227,-0.048515853119940694,-0.010742654966624554,0.8654552047539237
2024-03-06 14:26:26.322,-0.2878272594612183,1.4614025251646257,-9.718908373579078,-0.006861553039417651,0.003732085469096611,0.7961879290967873,-0.017793603190404583,0.002439911987087665,0.8671319047592159
2024-03-06 14:26:26.379,-0.3696970116770383,1.7785152506974733,-9.78329340093959,-0.006773427864036618,0.004257284566945523,0.8091332598653438,0.011945767310449858,0.009213513462982477,0.8685459678036079
2024-03-06 14:26:26.433,-0.3550921107086375,1.7284839291566234,-9.888546257916968,-0.00682053214551314,0.004478268708474852,0.8216585623867375,-0.0010064049509364986,0.006309921362168983,0.8657195486283038
2024-03-06 14:26:26.490,-0.338779909277544,1.5205116453151275,-9.845682417852988,-0.006865637973620454,0.004314221816709458,0.8337991366277141,-0.01342751897148322,-0.002651833032657133,0.8655230105986534
2024-03-06 14:26:26.546,-0.3142416793607868,1.3967457495312827,-9.79265114346034,-0.00686797176817419,0.003869451862386608,0.8455439225642574,-0.02168190312920053,-0.010305503501630602,0.8649636187334271
2024-03-06 14:26:26.602,-0.36200163912765343,1.4198184386727024,-9.78345312275355,-0.00694059057937935,0.0034901613325640014,0.8569053261965288,-0.021068251763427664,-0.006369073231387961,0.865975169521025
2024-03-06 14:26:26.655,-0.45783421527636703,1.5140289885779112,-9.816754329340093,-0.0070370720855860635,0.003351114963855534,0.8678649180270975,-0.0134670341347888,-0.00028661492015308776,0.8661138527179575
2024-03-06 14:26:26.740,-0.5122387189192933,1.5836865005381298,-9.836025813932237,-0.007194328844337711,0.00339774493003712,0.8783545129039299,-0.008328789759708886,0.005774503342661807,0.8609630264075725
2024-03-06 14:26:26.796,-0.5551957378024397,1.5679658227914415,-9.78674283332761,-0.007377665082962606,0.0034117966171610245,0.8884759510249173,-0.010016962851210403,0.006177174242904825,0.8643418127532686
2024-03-06 14:26:26.851,-0.47163583601040054,1.5478621316692152,-9.840326661377532,-0.007444592592681418,0.003303669570530771,0.8981957918105238,-0.012103026705829292,-9.813989221461893e-05,0.865430600653616
2024-03-06 14:26:26.908,-0.45691175777232307,1.5064438205876995,-9.866202992222876,-0.007443868014150003,0.003083195699006349,0.9075003742212567,-0.014866487819102318,-0.004412735848543951,0.8658345032987242
2024-03-06 14:26:26.960,-0.4976808584698254,1.4943959762210075,-9.814565628261448,-0.007296750529000074,0.0028023348053616936,0.9163280389403694,-0.014430770430098501,-0.010579986469290944,0.8605665566157441
2024-03-06 14:26:27.016,-0.5667012294039477,1.4914019954749365,-9.749456404501315,-0.007431358317192103,0.0025858917101558554,0.924743202659996,-0.01684617336927699,0.0008728499969824464,0.8620146999030067
2024-03-06 14:26:27.077,-0.6389584321650863,1.535659792536265,-9.776625969812343,-0.007652296307903241,0.0025045165744425127,0.9327547034053343,-0.013313194774736081,0.006343892117282357,0.8650315764483708
2024-03-06 14:26:27.128,-0.584797067731013,1.590064930642665,-9.91330230089052,-0.007786614409262065,0.0024625434171419835,0.9403340320042695,-0.010551971983753421,0.0038893235484433585,0.8654800689475585
2024-03-06 14:26:27.182,-0.560168217221667,1.5761351395557708,-9.879854783534451,-0.0076186637139356184,0.002319321000230912,0.9474185557687947,-0.009924799394689968,-0.008692109398180454,0.8583555603059223
2024-03-06 14:26:27.236,-0.5917652549175285,1.5157583730261055,-9.743272050370578,-0.007647516786477444,0.0021247194830284243,0.9540844687927921,-0.014562838867177255,-0.0018432711074448714,0.860871403244411
2024-03-06 14:26:27.292,-0.6390423617873708,1.5009567709185225,-9.720334694034356,-0.007753960263971647,0.0018326007791762623,0.9603330401053841,-0.019287882421227094,-6.310387342940229e-06,0.8644388166769651
2024-03-06 14:26:27.354,-0.6068350982865411,1.56048408980976,-9.905556118876337,-0.007788458009203221,0.0015977958473377318,0.9661427825344353,-0.01626119549008711,-0.001918361952025426,0.8659280938242311
2024-03-06 14:26:27.412,-0.6065466356846705,1.6089636068258957,-9.93194225567481,-0.007745498395408326,0.0015501455544052497,0.9714828209056948,-0.008197582851504754,-0.0026566417269816727,0.8631096766587194
2024-03-06 14:26:27.467,-0.65046210768766,1.6042637226009278,-9.76867983285089,-0.00779212469269067,0.0013733581004564271,0.976350626535424,-0.01409335365166147,-0.00037716999104654074,0.8594794361680268
2024-03-06 14:26:27.523,-0.7179098030136433,1.546631482077571,-9.675953170774866,-0.00791214149970047,0.0012497827772049478,0.980784563765591,-0.012759642758182074,0.0031227900151214747,0.8631167271018483
2024-03-06 14:26:27.580,-0.6358700109488605,1.6040123819330414,-9.85317881916452,-0.00789718932298627,0.0011756607049068961,0.9847680873944957,-0.009680845286978332,-0.001573005460445865,0.8643728467837122
2024-03-06 14:26:27.633,-0.6077105210924181,1.5822066406788875,-9.9604671746643,-0.007650973802690088,0.0010808110982131174,0.9882798280066063,-0.008670376032470232,-0.010657466198411162,0.8607921697836697
2024-03-06 14:26:27.687,-0.6418844729325659,1.5390520999285793,-9.838803576511348,-0.007592992369170034,0.0007991716732355982,0.9913258535391173,-0.017325343507224946,-0.004395916695530999,0.8586897915215929
2024-03-06 14:26:27.746,-0.7482999100109605,1.4941749151768902,-9.664589359523676,-0.007701195072840303,0.00041746724430235843,0.9939281047184041,-0.02234175355213527,0.0017003424075307252,0.863933565271181
2024-03-06 14:26:27.803,-0.6690813856565853,1.6117073412080534,-9.810285921837593,-0.007806475115690941,0.000266194354038319,0.9960667286740726,-0.013201521994207373,0.0029371929058446076,0.8641681990068277
2024-03-06 14:26:27.859,-0.6737997740960787,1.6799339459495328,-9.961143780482622,-0.00787929783957828,0.00017382205835432044,0.9977296146517801,-0.010676861903393916,0.002055273664016976,0.8576269435023988
2024-03-06 14:26:27.913,-0.7406682064532503,1.622298632061826,-9.839300716478064,-0.007861277215531011,4.36902053262247e-05,0.9989403051595838,-0.011910402065871347,-0.0015564118290051798,0.8627481042842371
2024-03-06 14:26:27.998,-0.6220916660021292,1.6410725692336436,-9.704032265669065,-0.007849894760759712,-6.068125596553747e-05,0.9996871134053598,-0.010922035443812865,-0.0010774894515279518,0.8644138489459642
2024-03-06 14:26:28.055,-0.6618438250696891,1.6321802085813222,-9.784567357028894,-0.007793602097022858,-0.0002438500678353581,0.9999672809193311,-0.013992771735801242,-0.002868240669315909,0.8638560938810076
2024-03-06 14:26:28.120,-0.6758338043303005,1.5968524441686693,-9.916886681913192,-0.00776449222694557,-0.00042749944149750725,0.9997839390579142,-0.013994090761578341,-0.0016322935204570472,0.8571846190511958
2024-03-06 14:26:28.174,-0.7632794809419395,1.5589921693237494,-9.857483671296698,-0.007756211971736217,-0.0007994659907250708,0.9991339080652358,-0.02159072244908703,-0.0006782788230144366,0.8641198879934531
2024-03-06 14:26:28.227,-0.6562406103771449,1.6309637849413297,-9.776715190510755,-0.007836992110814874,-0.0009399801720277128,0.9980143550276703,-0.012290593148051497,0.002848860151330775,0.8657869657489701
2024-03-06 14:26:28.282,-0.67857946247556,1.7283282120295438,-9.761931469795755,-0.007892956154101441,-0.0009748339811354605,0.9964301151951912,-0.00810990209978611,0.0018325371561588426,0.864543384294401
2024-03-06 14:26:28.349,-0.6978849432504437,1.7032132373527855,-9.861533247923296,-0.007894837389966602,-0.0010022521136369648,0.9943933007359261,-0.007919499498661383,-0.00019444941052790978,0.8597950832847033
2024-03-06 14:26:28.419,-0.7198078055887501,1.5804329369197787,-9.85098285377014,-0.007807521011402381,-0.0012944304768051492,0.9918849879895076,-0.018809015025691767,-0.0027151197907878044,0.8636165500809647
2024-03-06 14:26:28.475,-0.6454573506667979,1.5746995175167215,-9.821726008404022,-0.007659569648590512,-0.0016547814586076596,0.9889099941258139,-0.021794356673451247,-0.00469309128665731,0.8647870285313786
2024-03-06 14:26:28.548,-0.6776542808531146,1.6432923764848044,-9.789437708201516,-0.007592452048551249,-0.0017164649287258486,0.9854790952961915,-0.009534588532036972,-0.002854739649138031,0.863307241576256
2024-03-06 14:26:28.601,-0.7109917071549435,1.72625917425452,-9.794051386884767,-0.007669800962679413,-0.001776039616629672,0.9816023201196431,-0.008581244596033034,0.0029941835282631603,0.8603170570554095
2024-03-06 14:26:28.658,-0.7765999997380655,1.6517183191723803,-9.84454396919185,-0.007662426963357874,-0.002049941645286587,0.9772588375578306,-0.017632062245590913,0.001252314544233607,0.8626613091520235
2024-03-06 14:26:28.713,-0.667239910721094,1.6469322061226306,-9.879566073550034,-0.007584518154348458,-0.0022511185202951306,0.9724536368623901,-0.015335431878846274,-0.0019260997187804697,0.8639928919826434
2024-03-06 14:26:28.767,-0.6773167593817648,1.6764030694062295,-9.816536493000239,-0.007593997699951198,-0.0022183021874558253,0.9672067695341339,-0.0054436135031351775,-0.00034504427419361386,0.8621345576850066
2024-03-06 14:26:28.822,-0.7024340027019995,1.678583807677241,-9.734298850922622,-0.007620800731367953,-0.0023725144500273566,0.9615266296814694,-0.012545199303659084,0.0022199532751444595,0.8596609475041829
2024-03-06 14:26:28.879,-0.7517335317438374,1.5700827771106534,-9.809833485352334,-0.007489423759563002,-0.0027738811407879913,0.955388072312661,-0.023735943170435227,-0.0012442871354887061,0.8615629337051999
2024-03-06 14:26:28.934,-0.653379538087308,1.6169694997692068,-9.919760743241945,-0.0073707873487682245,-0.0030153543336849226,0.9487895551970081,-0.017474463548828836,-0.002364664764877188,0.8637346134247035
2024-03-06 14:26:28.988,-0.6628272885650474,1.716392615310826,-9.842471869694007,-0.007273156514750517,-0.0029811709517575625,0.941746811933536,-0.006707302949097802,-0.004669839030031257,0.8640929161106228
2024-03-06 14:26:29.048,-0.6863560885501462,1.7357993162928476,-9.750824237901684,-0.007302438029517829,-0.00291053210534103,0.9343088423497191,-0.003690805694060247,-0.00016487856560429864,0.8590625340978084
2024-03-06 14:26:29.104,-0.7775936714014716,1.6295242862722477,-9.735773786413983,-0.007311979583506941,-0.003162354349721301,0.9264263262806511,-0.01611945791918993,0.003572912886429576,0.8603294909273691
2024-03-06 14:26:29.160,-0.714436677925968,1.5760895163933137,-9.911217162877252,-0.007200988450172788,-0.0035631398056555717,0.9181100095790898,-0.023415577283360748,0.0013386667239395742,0.8608145570941712
2024-03-06 14:26:29.216,-0.6725954139932374,1.6237517280398515,-9.925510635412259,-0.007040741344269486,-0.0038225988355582575,0.9093347737064846,-0.018957161053373656,-0.002469092243845279,0.8641365514049802
2024-03-06 14:26:29.270,-0.6312138916068631,1.7307362279225629,-9.769570270322184,-0.006845661736727397,-0.0037487672409610975,0.9001692328940728,-0.007259267248854213,-0.008880197485648207,0.8612026942000738
2024-03-06 14:26:29.328,-0.6883057613357959,1.7406600632018754,-9.694239874923385,-0.006875817104444516,-0.0038547140203317788,0.8905991783204988,-0.010050814987984793,0.002449707543747917,0.8598859766655202
2024-03-06 14:26:29.383,-0.7848102923290455,1.6640630342371625,-9.799481928559413,-0.006888349427049385,-0.004080746255641922,0.8805649731525695,-0.014725618283771566,0.004049534930343647,0.8642568032016019
2024-03-06 14:26:29.439,-0.6720836304349218,1.6652236832991167,-9.97393083882474,-0.0068512132051794,-0.004246246741284158,0.8701041524949247,-0.013492408627968473,0.0013273435044431035,0.8655569609828933
2024-03-06 14:26:29.515,-0.6514555363340934,1.6628126871740008,-9.877002142623898,-0.006634749108239929,-0.0042635349080994145,0.8592828636940549,-0.011652288751381,-0.007646020835582728,0.8620100177921093
2024-03-06 14:26:29.572,-0.6643306861460534,1.656990210053976,-9.704576809952579,-0.006532142118122752,-0.0043594838385464935,0.8480915660021902,-0.012136039229914089,-0.0019847855376219385,0.8597382417770525
2024-03-06 14:26:29.651,-0.7594856880465335,1.6189020871519981,-9.700020966398464,-0.006395127535498003,-0.004671815717932635,0.8364447239157571,-0.020321065132844696,0.001401079061596075,0.8642766906119907
2024-03-06 14:26:29.710,-0.6785525050538799,1.6623124039937438,-9.933545061749594,-0.0063029404980825135,-0.004878070801519954,0.8243897968565187,-0.015793148524364878,0.0008203412290395312,0.8655527678643665
2024-03-06 14:26:29.762,-0.6662189091069955,1.7239211123250642,-9.961063127951492,-0.006164828711789518,-0.00483094931910567,0.8120108172897968,-0.008301566656973144,-0.006119051280217834,0.8614375034135745
2024-03-06 14:26:29.815,-0.6903231048896179,1.7052237065821803,-9.752472213119193,-0.006158184683780394,-0.004887614735436709,0.7992715789381328,-0.008747798293804789,0.000711852398331766,0.8602759048983443
2024-03-06 14:26:29.877,-0.749874614155986,1.6357450085477947,-9.638552468674094,-0.006033633270105926,-0.005086444626681948,0.7861192703028282,-0.016146744694672564,0.0003444361355140061,0.8630220400820032
2024-03-06 14:26:29.931,-0.6654845118152816,1.6416728880951952,-9.876534991242657,-0.005847476827358405,-0.0053181055887405555,0.77256249766164,-0.01870446292915109,-0.0006910441719861662,0.8654287891451276
2024-03-06 14:26:29.983,-0.65660596529543,1.6736983574380946,-9.995428091132236,-0.005688220523920096,-0.005343389011596819,0.7587202540010011,-0.011524488852871297,-0.004796514742353087,0.860839999305118
2024-03-06 14:26:30.038,-0.7049487168703837,1.6961449766499979,-9.809697698527403,-0.005580189146417892,-0.005487107173037485,0.7445129743031415,-0.01389911618276762,-6.175360857588294e-05,0.8615950389124678
2024-03-06 14:26:30.094,-0.7225092077239234,1.6966518023710306,-9.647353839115198,-0.0055362004663566606,-0.005670402186415049,0.7299020870183162,-0.013468055418308308,0.0030558050984313386,0.8649751466414786
2024-03-06 14:26:30.149,-0.6755354595232677,1.714240096112485,-9.824306051209934,-0.005457563753610498,-0.005714621842872583,0.7149718964321117,-0.010251704249904833,-0.0015413262052991203,0.8637735994706242
2024-03-06 14:26:30.203,-0.6645622274790205,1.6870488542695607,-9.953594200654603,0.005292099264919564,0.005691217576571948,-0.6998118553178208,-0.010614746279875943,-0.005775200879644021,0.8580001479689543
2024-03-06 14:26:30.258,-0.7253760760413205,1.602548156650778,-9.831400121188345,0.005112072714539699,0.005873659926264547,-0.6842418663222789,-0.016952844902526215,-0.0002950080621237033,0.8627330496629987
2024-03-06 14:26:30.313,-0.6890307828289737,1.6327817498036947,-9.706526347405424,0.004925888221345222,0.006066562841419262,-0.6683385033395098,-0.017436388245160875,-2.43850001814071e-05,0.8635317288754313
2024-03-06 14:26:30.368,-0.6797251914595396,1.6944366284494585,-9.835418312245668,0.0048330598515692125,0.006195277573168416,-0.6521129641073099,-0.012971287952126048,0.000803422307224959,0.8641227852364015
2024-03-06 14:26:30.423,-0.6764121847254956,1.7292962170260893,-9.903679317713113,0.00472959708193093,0.006295304990309634,-0.6357128271379971,-0.01247826210995585,-0.0001834842032433376,0.8574069503034347
2024-03-06 14:26:30.479,-0.7451489861390104,1.6748356303045366,-9.80284847324223,0.004579298520036483,0.006411115158134704,-0.6189116078445699,-0.014363273553068911,-0.000786127894468901,0.8629429452324155
2024-03-06 14:26:30.532,-0.6535388917378303,1.7011022551392998,-9.770351463660669,0.0045287032519554056,0.006481599182790934,-0.6017997972427307,-0.010151216024704252,0.0004954098215085282,0.8640969524556383
2024-03-06 14:26:30.586,-0.6662811360039396,1.6999511754163448,-9.794674814186603,0.004441224551607088,0.006606255489737382,-0.5843991120176864,-0.012662660248006767,0.0014314384381961154,0.864466092209828
2024-03-06 14:26:30.647,-0.6868503777968051,1.6633682909125622,-9.88813675540036,0.004278812965416308,0.00667600397342069,-0.5668582860676421,-0.01369175425136548,-0.0019741573709004608,0.8580232475654641
2024-03-06 14:26:30.701,-0.7218094920101259,1.6017639597971347,-9.84579473535015,0.003979959042176022,0.00685131627013264,-0.5489287994755928,-0.02064402333352195,-0.0015962034037831428,0.8640781893636948
2024-03-06 14:26:30.757,-0.6392180659690673,1.6512021453014487,-9.7835144969083,0.0037612837918741546,0.006990968695109899,-0.5306939113796996,-0.017223058120839563,-0.0008077014525528641,0.8664219414608564
2024-03-06 14:26:30.813,-0.6735806513669778,1.745196360624382,-9.785559681185013,0.0038659571437003495,0.007001137150076378,-0.5122310364949227,-0.0035744948704516406,0.002112152069804219,0.8655422499004185
2024-03-06 14:26:30.872,-0.6901320775419139,1.749508896167433,-9.835391117627783,0.0037520939211194305,0.007009037135951098,-0.49367641513911414,-0.010889300133251902,-0.002450818602210715,0.8586890742067915
2024-03-06 14:26:30.930,-0.7286712901494597,1.6245422229621063,-9.83333866903533,0.003514010725131719,0.007136216927235265,-0.47484940903970296,-0.01762338486904977,-0.0007531527846182608,0.8606654646742335
2024-03-06 14:26:30.984,-0.6798416693490695,1.619847693841688,-9.835224504027098,0.003175169148480348,0.007231751272309772,-0.455745774798282,-0.020532064189800754,-0.003698712675405268,0.863199033029463
2024-03-06 14:26:31.040,-0.6686457653637659,1.669949469931961,-9.831348991581425,0.003030307886447987,0.007330230220670248,-0.4364204534270389,-0.013774739383734089,0.00023593723672434605,0.8636589998748658
2024-03-06 14:26:31.094,-0.6805848501763984,1.7587983727467087,-9.789415822122052,0.003020595794048494,0.007297929460672355,-0.41699278836371556,-0.00655596020171414,-0.001806382806858593,0.8592728265005749
2024-03-06 14:26:31.147,-0.7023398590909011,1.7207548834769995,-9.81530081426693,0.0028043648722777268,0.007469003655770736,-0.3973675772434292,-0.017548778545711408,0.0020533076784731057,0.859395201804991
2024-03-06 14:26:31.201,-0.7276383297719947,1.6456177840693789,-9.828329364541176,0.0026526378390993926,0.007615233352896554,-0.37746822395189467,-0.014831222628235097,0.002369970581526413,0.8633325865119776
2024-03-06 14:26:31.255,-0.6502564338379744,1.699582348411251,-9.855721329672459,0.002582948790956301,0.007612253008944805,-0.357376534691438,-0.009465156401860946,-0.0016537086220777084,0.864091315759697
2024-03-06 14:26:31.316,-0.6421260710936696,1.6935550501837326,-9.820318407531605,0.002527006162712316,0.007392732057581056,-0.3372025448300425,-0.005667663094321291,-0.009315829862077836,0.8605511027908035
2024-03-06 14:26:31.369,-0.6746143393401697,1.6456315560012968,-9.759677576139982,0.0023657382939238684,0.0075091165292389996,-0.3168674597530247,-0.014410743142358991,0.0018721983916419516,0.8606671926023821
2024-03-06 14:26:31.421,-0.7748233741364166,1.5597675302548855,-9.800642542696773,0.0018866585495487772,0.007749271383211304,-0.29628935287987385,-0.028085282130713155,0.0023887781164730463,0.8645892512489212
2024-03-06 14:26:31.497,-0.6502497574195847,1.6454378641980412,-9.916651895503284,0.0016586372915690024,0.007849658925366215,-0.27553991073938144,-0.016812643736076778,0.0004155501917205081,0.8660480297728806
2024-03-06 14:26:31.551,-0.6452084794588085,1.7581715926837629,-9.850902480635767,0.0016852207049936599,0.0077113628273662955,-0.25471931043088897,-0.004252431882524818,-0.005534379062566826,0.8637582685358768
2024-03-06 14:26:31.607,-0.67204740198849,1.744558870352337,-9.735601212349103,0.0016618185825763932,0.007687528186171799,-0.23389561504908907,-0.007407952201021072,-0.001534553946998356,0.8589677136346198
2024-03-06 14:26:31.660,-0.7513126296211787,1.6328683744405517,-9.732216413744691,0.0013948493869498373,0.007853675357552315,-0.21284167754098998,-0.018810866366078406,0.0034742502363023895,0.8638811916681878
2024-03-06 14:26:31.716,-0.6761595169230035,1.628592928817273,-9.921231580914176,0.0010851808933101188,0.007938212545107312,-0.1916488145814669,-0.019729766537943484,4.812821621386084e-05,0.8654905976342147
2024-03-06 14:26:31.773,-0.6372424704028611,1.6948922663559154,-9.934810449671621,0.0009584539013370207,0.00791517769203122,-0.17038654457203076,-0.011669445925867208,-0.002448521501261457,0.8647312879827393
2024-03-06 14:26:31.826,-0.6713838186784883,1.7288454103552586,-9.766970110949618,0.001314021759706377,0.006192143606392047,-0.15054432849174954,0.020669526613297014,-0.06535002784978855,0.8043930836552415
2024-03-06 14:26:31.879,-0.8978563341864636,1.5813072392282363,-9.642589006785267,0.0018354843352969142,0.004143900864776464,-0.13359316223968404,0.02995226972561464,-0.07706650790781545,0.6853454992182817
2024-03-06 14:26:31.931,-1.9504098925079176,1.0554048429935734,-9.653127852539047,0.0016667099381697697,0.0025763770205676027,-0.1193189659202704,8.261672813683641e-05,-0.062299999734937855,0.575705838939106
2024-03-06 14:26:31.988,-2.2392868863384883,0.8201917418467078,-9.966591179095069,0.0013704226141443342,0.0005883570138491126,-0.1081730407723346,-0.0026172114756200836,-0.07978967953374927,0.4488647602410031
2024-03-06 14:26:32.044,-2.2293078352746556,0.888266360571995,-10.124461989526115,0.0025000163918523855,-0.0009526089403795602,-0.10083965070415483,0.05178338731294158,-0.05562481815210795,0.2951239276205221
2024-03-06 14:26:32.095,-2.7579326502470622,0.7410633025744665,-9.81565946657338,0.0027997570173908257,-0.0024863092074905737,-0.09776008055943416,0.01838606530593686,-0.05944985274565915,0.12394978521492553
2024-03-06 14:26:32.152,-3.0031732719747004,0.3011402734712195,-9.688336593932316,-1.3668090631521624e-05,-0.004220472345642332,-0.0989190899684333,-0.1054112380836139,-0.08005506805634674,-0.04633052330604913
2024-03-06 14:26:32.207,-3.2105754001630977,0.3866326840657118,-9.79271335580537,-0.004260726729339608,-0.004553822356861784,-0.10396427284414246,-0.16873157576543532,-0.029306244016670556,-0.2023027698637259
2024-03-06 14:26:32.262,-3.6620436825191343,1.9711224473759115,-9.840891787888966,-0.002142571000504093,-0.006201195784323485,-0.11407787819565061,0.08851764024178421,-0.05611170651401917,-0.4075165288813133
2024-03-06 14:26:32.314,-3.695142186756943,2.6839010073999394,-9.73688066324134,-0.0001830831192401682,-0.007633145991636043,-0.12730866825810236,0.08034270994804663,-0.048304789370485254,-0.5336700261622611
2024-03-06 14:26:32.370,-3.424666449746127,1.601089763775861,-9.72023122410123,-0.003570534544827947,-0.0075996095174274405,-0.14245837457925378,-0.139438101324339,-0.014313480027166182,-0.6106163652343193
2024-03-06 14:26:32.428,-2.958957308757284,1.2451115520664593,-9.762782977985282,-0.005797133318045201,-0.008023024253528892,-0.1606247405836882,-0.09215522496056888,-0.026019536670106574,-0.734655566611987
2024-03-06 14:26:32.483,-3.0426212960284333,2.302171413404176,-9.732963986339827,-0.004110362257530328,-0.008446708068371852,-0.18121075086988578,0.061819338709367046,-0.003553143787164926,-0.8363183114850852
2024-03-06 14:26:32.538,-2.9708906986781622,2.542047623177591,-9.676474897656385,-0.001040581670972594,-0.007990426823090688,-0.20219334581183776,0.11056387885382761,0.039911392361045475,-0.8561363402272208
2024-03-06 14:26:32.595,-2.2405730864086864,1.3337661111521797,-9.778838047086504,0.00033649058014321504,-0.007100111055979693,-0.22323160446960869,0.04079744410590534,0.04455901198695504,-0.8616221494151309
2024-03-06 14:26:32.653,-1.5403848894083598,-0.07071112004922041,-9.871033669055702,-0.0016918927549048409,-0.006040905178726195,-0.24420055917264438,-0.09394671303263483,0.02350368311264223,-0.861982378107631
2024-03-06 14:26:32.736,-1.1253061082534384,-0.2982661990457437,-9.775433411312193,-0.0033246395108499243,-0.005974998125019354,-0.26521632754241525,-0.06970088467049156,-0.011797370863069548,-0.8689672121591606
2024-03-06 14:26:32.794,-0.9762696981991132,0.5291122284394469,-9.675913775831832,-0.003447894048888318,-0.006338309108043387,-0.2860449885337649,-0.006973286037213953,-0.013829654240066882,-0.8667733076838873
2024-03-06 14:26:32.847,-1.0076136024312174,1.2213460084389463,-9.842887705203822,-0.002499159362323817,-0.006976561444479407,-0.30648686707149037,0.03733395526906723,-0.013198649059285061,-0.8564445860741061
2024-03-06 14:26:32.905,-0.7942771511076626,0.9856709014678224,-9.96811361203548,-0.001455564066843068,-0.006968898304730414,-0.32658309080457315,0.03363415984877236,0.012513786353842031,-0.8476970989416959
2024-03-06 14:26:32.961,-0.7978441513236131,0.49893720092177646,-9.750967102777844,-0.001532439210090645,-0.006142109903537417,-0.3465437147955832,-0.019058099094215547,0.029838471191173763,-0.8477360334511055
2024-03-06 14:26:33.012,-0.6618026446067403,0.19321466780598456,-9.645664140648329,-0.0024147184169561256,-0.005508861839067623,-0.3666472657675291,-0.04704598658714445,0.011891974236593241,-0.8604383181711505
2024-03-06 14:26:33.066,-0.4084828464941819,0.42840572425751766,-9.740909191978751,-0.00395112120866932,-0.0049617794503859745,-0.38658807533102096,-0.0704034622732738,-0.0005201503172507706,-0.8606860051761467
2024-03-06 14:26:33.123,-0.2509744136597075,0.9064016229459245,-9.89611427793109,-0.004035659586208331,-0.005223045710360235,-0.4063907720646089,-0.004565016323078992,-0.009417129430808205,-0.8628915042233433
2024-03-06 14:26:33.180,-0.13608467351615583,1.345938933181683,-9.893823224506356,-0.002429768633236045,-0.0066494602325249735,-0.4258780812679084,0.07581799153195024,-0.026376767779033795,-0.8578299636343147
2024-03-06 14:26:33.233,0.002028827924774751,0.9167900455591341,-9.797069710073476,-0.0017921590204767052,-0.0069061847107362755,-0.444781772524572,0.021547736308833127,0.0005240577519759562,-0.8401237709476038
2024-03-06 14:26:33.287,-0.06876219086640353,0.20844695783495454,-9.800498839630334,-0.002842925699196146,-0.00589551633983086,-0.46378654691242793,-0.06120936928017935,0.017507290452310205,-0.8528688228219394
2024-03-06 14:26:33.369,-0.16467494806421704,0.22872620616454023,-9.805292636090961,-0.004065834291942985,-0.004862381511471681,-0.48276585995258947,-0.06782718598589772,0.015142156290013312,-0.8613602489873073
2024-03-06 14:26:33.427,0.06361290277516651,0.8193959500275614,-9.768796155034932,-0.004089914526913505,-0.0048312119540117665,-0.5016060200028933,-0.0068057128261755345,0.0017665192258225308,-0.8657366213070894
2024-03-06 14:26:33.480,0.24768130375841027,1.3782647715029277,-9.757474812091129,-0.0035194236850048005,-0.005508805287076602,-0.5201829039966236,0.02769312132589083,-0.011696523573640961,-0.8646675525025499
2024-03-06 14:26:33.533,0.35304203116787264,1.1464535645496734,-9.853060727467671,-0.003485646387150668,-0.005970120923782577,-0.5382554976289619,0.004862163751858061,-0.015103879082925006,-0.8521502842766703
2024-03-06 14:26:33.588,0.4707594789716104,0.7114050455562236,-9.871210899733235,-0.003799207732384015,-0.0056010972282907944,-0.5559929340800422,-0.024247906891425544,0.005908203379237898,-0.8474842188657656
2024-03-06 14:26:33.645,0.30799279039946165,0.7103450957428665,-9.837014505930487,-0.004133612076089356,-0.00494104083958223,-0.5737282853902845,-0.03129699054781099,0.015158882035948519,-0.8594857173191472
2024-03-06 14:26:33.698,0.2403291235614705,0.9827465865574071,-9.795782063542973,-0.004421766786780303,-0.004750721091497707,-0.5912644782107319,-0.019346600128717008,0.0004549710692729149,-0.8629203562723603
2024-03-06 14:26:33.752,0.5397398903484136,1.1705236826588326,-9.79047520150036,-0.004572558974892863,-0.004934452287230663,-0.6085487969706935,-0.006287170337498644,-0.00876573544171934,-0.8642294945980447
2024-03-06 14:26:33.809,0.5576128078966838,1.2729481771398736,-9.805545397025705,-0.004485804985792964,-0.005295958840075402,-0.6255613524689013,0.0055613395929843745,-0.009006776695707914,-0.8649346159874256
2024-03-06 14:26:33.865,0.5233110960676652,1.2079008455826499,-9.82339121308834,-0.004460383485267681,-0.005350299513813126,-0.642159025256726,-0.003823837319418306,-0.0008815366850101592,-0.8584372709709599
2024-03-06 14:26:33.916,0.5812401578126027,0.9739169446567407,-9.814410190531127,-0.0043608325133846415,-0.004954628918399722,-0.6583574775713874,-0.012736576130556107,0.014887026768191805,-0.8527795526112382
2024-03-06 14:26:33.971,0.5926890948534534,1.0007166410455959,-9.803689271222657,-0.004244927692128285,-0.004504563685074887,-0.6744528412945258,-0.013700919996318204,0.016858827200549608,-0.8633952309449844
2024-03-06 14:26:34.029,0.5443705074601846,1.1294044017795246,-9.846058113361742,-0.004629925397940958,-0.004139708806207902,-0.6903241432998619,-0.026573348259525724,0.000990252550776371,-0.8684155543478751
2024-03-06 14:26:34.088,0.7401518681456845,1.1899264662654607,-9.834764989490607,-0.005170382727275218,-0.0041148067857512205,-0.7058309545945982,-0.02199111560754767,-0.013362419821767692,-0.866352545310254
2024-03-06 14:26:34.146,0.7995171705679379,1.3954409608454545,-9.801290277516653,0.005384902136883435,0.0043692463276275816,0.720982572088573,-0.004852701707805215,-0.012570099123309331,-0.865058825030241
2024-03-06 14:26:34.200,0.6817459052367684,1.4789276053893305,-9.817117731391448,0.005274655770743872,0.004805846571063204,0.7356384460665325,0.009545472434340686,-0.008694286563744762,-0.8557544985085137
2024-03-06 14:26:34.259,0.7523206316462232,1.3251695094316778,-9.812441281569651,0.005119892333397554,0.004814576824173865,0.750065160959375,-0.0016085603811682634,0.004319263975235448,-0.862077343059736
2024-03-06 14:26:34.316,0.6110969233178132,1.2068342600962638,-9.837871322658437,0.004875421749733043,0.004286993493400919,0.7640663739080571,-0.01492620617958581,0.02135902744307434,-0.8570625969347312
2024-03-06 14:26:34.371,0.6863608819507947,1.1207298425424639,-9.838390162440112,0.005126389049703819,0.0036492107752981308,0.7777563201995726,-0.03135501970046087,0.009291408266343223,-0.8595901693697539
2024-03-06 14:26:34.427,0.8446203543740435,1.266166542587342,-9.771353101042092,0.00571998856099903,0.003307343041271962,0.7911634477814683,-0.03119562954078996,-0.008926904263874236,-0.8647872775958038
2024-03-06 14:26:34.482,0.8509818947989711,1.5295828198932822,-9.801717382029084,0.005981874065931505,0.0034732746101168136,0.8041875230222214,-0.007071323972709041,-0.011496860890293979,-0.8640634760157946
2024-03-06 14:26:34.549,0.7784171435086529,1.6664108401285924,-9.86730465364406,0.006080929207063235,0.0039583146683702325,0.8168205641885414,0.007001351533793542,-0.01427882187667408,-0.8630821261735822
2024-03-06 14:26:34.602,0.7982305313937184,1.5328489447242617,-9.840960798888466,0.005801747062824623,0.004160836655338022,0.8290400539324124,0.006915873361944875,0.004470320252729578,-0.8605031704024602
2024-03-06 14:26:34.653,0.6647053950350031,1.3787993855599605,-9.824853389461039,0.005453036723879664,0.003838166331142254,0.8408535737996677,-0.008626446596153463,0.01872875215480403,-0.85858769290952
2024-03-06 14:26:34.709,0.7307899666877572,1.2347258972273945,-9.795301221720537,0.005574696131265875,0.003136065062741781,0.8522890172585608,-0.03173198361852544,0.011493758483601664,-0.8592393082721073
2024-03-06 14:26:34.764,0.8438719059355513,1.328874525825865,-9.764495400721891,0.005984870492634653,0.0026550999778855843,0.8633260403380316,-0.030545918441431157,-0.003116360789219454,-0.8590566071412037
2024-03-06 14:26:34.818,0.9091837634685246,1.565275814077755,-9.816249086867362,0.006424535406967155,0.0026181900401129007,0.8740055429027699,-0.016064247124314757,-0.013528098935428013,-0.8626420638311584
2024-03-06 14:26:34.884,0.8349362431511415,1.716419029946094,-9.872217752520827,0.006513100122660621,0.002985153349644285,0.8842359192299692,0.004977613345760255,-0.00968550606791559,-0.8590531295812378
2024-03-06 14:26:34.944,0.7728622313498298,1.6800880099791209,-9.864876416410603,0.006410325147393939,0.0032519103117981405,0.8940596265282706,0.005182889507225463,-0.0011801232838290535,-0.859037356159182
2024-03-06 14:26:35.001,0.7421064165502999,1.5029492423400177,-9.811243600795581,0.006041655888313014,0.00306020706030309,0.9034334083448986,-0.006042511737013149,0.016656052983464415,-0.8551852522448053
2024-03-06 14:26:35.053,0.7204150758998759,1.3671200189524135,-9.807187504911271,0.005945577969945442,0.0025178192997655207,0.9123917438169334,-0.023465911439034988,0.013066045280765526,-0.8548922166863933
2024-03-06 14:26:35.107,0.8343858282160314,1.4012272502644083,-9.770853446504542,0.006250512162829664,0.001977723189276815,0.9209742999815999,-0.030293325247297012,-0.001579453229060163,-0.8593389546199479
2024-03-06 14:26:35.161,0.8657074595151186,1.6009556766145494,-9.813070483071176,0.006456520231915082,0.0018542408436354341,0.9291445954989612,-0.013492800436298144,-0.0049082229253765534,-0.860898395377867
2024-03-06 14:26:35.216,0.7927227690750862,1.762615759024952,-9.860004854518689,0.006768629634406353,0.002016399258150536,0.9368945108661693,-0.004647530470859077,-0.013390834369650585,-0.8622567240643609
2024-03-06 14:26:35.273,0.8380011743031234,1.697806514251854,-9.831686130337424,0.006758340018014532,0.002193193984904303,0.9441603266087194,0.0006954979182797196,-0.001758061550096481,-0.8561296097547794
2024-03-06 14:26:35.326,0.7376719934434893,1.5869688303811378,-9.817679784538534,0.006562097034120864,0.0020915828760055474,0.9509796552413966,-0.007129680063399601,0.008973016327361447,-0.8540357565986058
2024-03-06 14:26:35.381,0.754088248339481,1.4898521001614098,-9.810878336099167,0.006339842009030271,0.0017831845821225248,0.9573751016663455,-0.014608347277300739,0.01255518898081449,-0.85525313386078
2024-03-06 14:26:35.436,0.7499118874298817,1.522927635657313,-9.825760031944363,0.006515779237438296,0.0012365506306793728,0.9633822785801663,-0.02865073544085256,0.00023993777317837933,-0.8628856977735654
2024-03-06 14:26:35.491,0.8000202788205033,1.6165766912089554,-9.825393183999646,0.0066906379856652935,0.0010029040045895687,0.9689535275334029,-0.016679658309979774,-0.003454856393441387,-0.8650942144737286
2024-03-06 14:26:35.552,0.7693919147816601,1.776063381154805,-9.818377345113788,0.006815257936679396,0.001195442011199492,0.9740543418941986,0.0002872983428691906,-0.006216107575677265,-0.8622087996256979
2024-03-06 14:26:35.610,0.807415098855521,1.7494891637713206,-9.802587516669217,0.007010641854929144,0.001317426627540298,0.9786955602770405,-0.003147401993528591,-0.008390220819165758,-0.8608988309825949
2024-03-06 14:26:35.664,0.7978031654925212,1.5882501322769031,-9.812499954889065,0.006845212899381682,0.0011911206570105481,0.9828715242191102,-0.009540084661496643,0.007781926403393865,-0.8576625593278626
2024-03-06 14:26:35.718,0.6855728390261393,1.5623902741988154,-9.846025423940928,0.006587417838575638,0.0009971373552117525,0.9865867660287817,-0.011420408635714217,0.01182493175316375,-0.8553344289837213
2024-03-06 14:26:35.774,0.7524875610234536,1.5618753692548315,-9.831642916972013,0.006622170560986164,0.0005373247343358593,0.9898721075520622,-0.024073772196554283,0.0021637993383255023,-0.8617613210417391
2024-03-06 14:26:35.826,0.7904009001523294,1.6090683224029054,-9.811497013656098,0.0067752341786431695,0.0001747123970325117,0.9927055059829965,-0.021039320137528454,-0.0032598258060487504,-0.8646660971885755
2024-03-06 14:26:35.882,0.7604450419298866,1.7561441035351255,-9.814103878550887,0.007000484767199876,0.00014844537339839126,0.9950642960148757,-0.008117997857326427,-0.008155263876372427,-0.8607292536884912
2024-03-06 14:26:35.950,0.8189636822230029,1.7600790576412975,-9.795796592174446,0.007108785620512262,0.0001778677208106817,0.9969714260758603,-0.005386935811053865,-0.0039054489357302808,-0.8650535344958297
2024-03-06 14:26:36.003,0.6972974067906219,1.727932690992423,-9.840071851533217,0.0068741842112242935,0.0004723482213723005,0.9984012452842803,0.006576461544247259,0.008559453222710295,-0.8556188576664794
2024-03-06 14:26:36.060,0.7253438166295787,1.6030465655444426,-9.803765174008882,0.0065506196472293644,0.0004155710509910062,0.9993784837339191,-0.007183534211292687,0.01306978108193578,-0.8595810353322348
2024-03-06 14:26:36.117,0.6975273488681812,1.492208707050752,-9.825365803117252,0.006424825916949847,-0.000268340122407216,0.9998942450855326,-0.03269917679406878,0.006459849062593468,-0.8636875263561737
2024-03-06 14:26:36.178,0.7725351123145868,1.5275037704010566,-9.840110780814989,0.006601703582225333,-0.0009095073703300694,0.9999409178059419,-0.03142818424848692,-0.005817324149494963,-0.8651198904406193
2024-03-06 14:26:36.229,0.8006415222437656,1.7994827900327535,-9.804149903346184,0.00682727104237779,-0.0008364841869127773,0.99952251057634,-0.00288258702005228,-0.008263916464816471,-0.8616229548097745
2024-03-06 14:26:36.285,0.773399615363795,1.9117787969291968,-9.819437097021108,0.007098486701731756,-0.0005677901997113023,0.9986387090287011,0.004937433943221615,-0.010148888804847486,-0.8627406730401881
2024-03-06 14:26:36.341,0.7457205424138832,1.7514766875418732,-9.837467780606023,0.00702390462698903,-0.0003707632995555634,0.9972897521444838,0.0016375385641599594,0.0034586321066864796,-0.8643322023418699
2024-03-06 14:26:36.397,0.6143853911583732,1.5926942520519654,-9.855380931287606,0.006699675173494473,-0.0005220957420450822,0.995492936602552,-0.012747977795773791,0.012578771734704546,-0.8573704116940634
2024-03-06 14:26:36.451,0.734799289808363,1.4515413096839498,-9.785336629438987,0.006412173282116613,-0.0011231154424846592,0.9932308988891795,-0.03059543571927783,0.009674018947498936,-0.8596703229978925
2024-03-06 14:26:36.522,0.7630609304668778,1.5514415417578828,-9.751569761587254,0.006413294547423746,-0.0016865097194957766,0.9904942635061452,-0.0280401439917686,-0.0017928085521253182,-0.8636174869448144
2024-03-06 14:26:36.580,0.7700474545209015,1.7895628430250055,-9.828270877486267,0.006604411144722951,-0.0017490611637022637,0.987288719143344,-0.007289089739227153,-0.007138688582024664,-0.8653885880753908
2024-03-06 14:26:36.633,0.7404314082411567,1.9047731443835139,-9.906724090461685,0.006891011130258191,-0.0014951825869794512,0.9836401226156859,0.005787134957716298,-0.00931200169214074,-0.8611990332525915
2024-03-06 14:26:36.690,0.7732267371639017,1.7600730855355715,-9.827724563689946,0.006944734543841913,-0.0013671852531467812,0.9795281803379271,-0.000682618818764684,-0.0010446229852038638,-0.8628944520489922
2024-03-06 14:26:36.746,0.6535105431531205,1.5910378600070898,-9.780461155992448,0.006611794636488912,-0.0015111901787508608,0.974971532667756,-0.014159686913620883,0.012078773362860146,-0.8611865505547611
2024-03-06 14:26:36.800,0.658357558875591,1.508720892532947,-9.813478588603989,0.006274650358355294,-0.0018964411293980645,0.969963446723972,-0.02364745294223044,0.010176064587722933,-0.8609404077203076
2024-03-06 14:26:36.859,0.7369729878631212,1.594998297425999,-9.799295198392072,0.0062417384418991025,-0.002295784864455932,0.9645265040322379,-0.021478412552535246,-0.001938625810162195,-0.8575227241376107
2024-03-06 14:26:36.913,0.8414189251723092,1.7217711659052135,-9.814124181382047,0.006435971279927727,-0.002630457488116223,0.9586067354559631,-0.01680980379406527,-0.010239146647359554,-0.8629090303444876
2024-03-06 14:26:36.967,0.7307857022492021,1.8291885794246405,-9.845391379562244,0.006675223069630084,-0.0026501904015304627,0.9522264330233958,-0.004213307317245499,-0.00877830560986606,-0.8649230020259911
2024-03-06 14:26:37.020,0.6726347289007425,1.8225643733043382,-9.845923350991596,0.006747077775477455,-0.0024225676566987497,0.9454410259600774,0.003387266202227241,0.00032158530414485724,-0.8602447757190052
2024-03-06 14:26:37.091,0.6805625508225616,1.6846672762948731,-9.805031027592177,0.0065899321367198565,-0.002352859742603556,0.9382369786173981,-0.005414572735171064,0.006982806219719575,-0.8581511914524083
2024-03-06 14:26:37.146,0.7040716562465258,1.5125790474549574,-9.789312165924422,0.006173786769530986,-0.0026674978704254912,0.9305936192018283,-0.02333144270806236,0.011641807877616242,-0.8589010194883557
2024-03-06 14:26:37.200,0.7029701316133358,1.5374250445434103,-9.821784961120196,0.005963900372747252,-0.0030599982809777684,0.9225095295311112,-0.023413184635442393,0.0027001075781859125,-0.8599364934926048
2024-03-06 14:26:37.259,0.760832455004025,1.6880547757346245,-9.839804561966998,0.0059759491758755055,-0.003393419387443467,0.9139521335298996,-0.018007859428262992,-0.004815539008087405,-0.8644770701624395
2024-03-06 14:26:37.313,0.7274832049078369,1.8202323533297982,-9.838787557763824,0.006180564111389263,-0.003334261568591781,0.9050028572747921,-0.0005414002867617474,-0.00599088563747287,-0.8613031143065171
2024-03-06 14:26:37.372,0.7323639657925234,1.7984856229994755,-9.798911493509555,0.006365723109985408,-0.0034071468530619126,0.8956279346224224,-0.005698134698377308,-0.007552426120654997,-0.861784000642915
2024-03-06 14:26:37.427,0.7232468428166221,1.658195178426845,-9.79138193711594,0.0062540884178718245,-0.0035199338307683172,0.8858048126439206,-0.012220132284918792,0.002380780482974626,-0.8646624861171015
2024-03-06 14:26:37.484,0.6032450303756663,1.6159388866155564,-9.856977683765942,0.005887497693977748,-0.003612540955289416,0.8755593413955294,-0.01604531789107851,0.011740562621577655,-0.8654363779833502
2024-03-06 14:26:37.541,0.6408329457673427,1.6398676241438381,-9.831409900074913,0.00566664805011704,-0.0036583362651769055,0.8649001965855521,-0.011692078448698622,0.007316344599641854,-0.8657121884817899
2024-03-06 14:26:37.594,0.7391459001144944,1.6920196951432112,-9.77421077109431,0.005619157145220572,-0.0037127100192465676,0.8539083064078637,-0.008613684239361718,0.0009497658282776384,-0.8601004191174806
2024-03-06 14:26:37.650,0.8122376453517983,1.6551158419708647,-9.806861728290144,0.005602375075290001,-0.004082411820859963,0.8424773225325033,-0.018935532381796773,-0.006565629851506532,-0.8632331494165214
2024-03-06 14:26:37.707,0.7435764502292509,1.6659224196690663,-9.863729958375703,0.0055789239234385465,-0.004295315557277698,0.8306307722653282,-0.013741207038368631,-0.0032013036671864965,-0.8649601550555563
2024-03-06 14:26:37.764,0.657398378160021,1.7331259898939864,-9.858783704416856,0.005504830246200148,-0.0041924569359671,0.8184833580510533,-0.004161556758142496,0.005175051044879267,-0.8590144753834601
2024-03-06 14:26:37.820,0.7257045709600829,1.697358431699425,-9.756999278807115,0.005476342619614584,-0.004160530945311268,0.8059431469667907,-0.005517207926164472,0.0019528588120510512,-0.8600102043015312
2024-03-06 14:26:37.910,0.7049173596773433,1.643707373804342,-9.775137716408796,0.005266907062696073,-0.0043866525684465715,0.7929772098287821,-0.018152211265231987,0.0018219556967553944,-0.8634059651479333
2024-03-06 14:26:37.967,0.6785041475866814,1.6097477571134124,-9.883815698256157,0.005029927899839438,-0.004760790579041574,0.7796050249164987,-0.02359977184110968,-0.0009206164712634436,-0.8656820636447473
2024-03-06 14:26:38.022,0.7013347656297748,1.699394104844798,-9.877670739068456,0.00495614318728344,-0.00481385385564792,0.765915843577318,-0.009431676003527841,0.0015958813919142896,-0.8628027770111739
2024-03-06 14:26:38.079,0.7068005622277701,1.7912073723491506,-9.779292439349076,0.005047569484693488,-0.004662342769795201,0.7519556929467105,0.0011096470051423371,0.0014379363361107184,-0.8576990852140366
2024-03-06 14:26:38.131,0.7720074464329474,1.693248249259162,-9.721099589228556,0.0050219541675820085,-0.004654005366603748,0.7375576807906495,-0.006329871932379389,0.0012174043434066994,-0.8631026496574301
2024-03-06 14:26:38.185,0.6662875883228453,1.6366010569346565,-9.84845133286806,0.004809383440655883,-0.004687983676933013,0.7228913514208168,-0.012506706192873647,0.005596124657617115,-0.8587409000584035
2024-03-06 14:26:38.241,0.7044250727741247,1.5664683958609698,-9.927562245814434,0.0045214094977317374,-0.004940260691305072,0.7078852759018072,-0.020989797549087943,0.0018006197282533106,-0.8590234448404993
2024-03-06 14:26:38.297,0.746495425314627,1.579940290584271,-9.798009693903388,0.004211070075533847,-0.005352305324014044,0.6924822428330696,-0.026262034390281103,-0.002088061452875983,-0.8628600619958906
2024-03-06 14:26:38.351,0.6925062515024851,1.7213333628252134,-9.749391025659682,0.004173452629974436,-0.0056534212697174685,0.6767132651604996,-0.015447603328393568,-0.006799902189426442,-0.8652792028784981
2024-03-06 14:26:38.419,0.6969944170124687,1.8441820339734818,-9.817946701575739,0.004332682244593873,-0.0056438950610513275,0.6606307223024367,-0.0011787614396139583,-0.003418789003227156,-0.8652363380269565
2024-03-06 14:26:38.474,0.6818655670851992,1.846186763927783,-9.86089082164184,0.004517427167893063,-0.0054461551710686396,0.6443821838807717,0.004708206506764792,0.0012980997345081282,-0.8578211853870534
2024-03-06 14:26:38.527,0.7270549500665605,1.6810609626266089,-9.809168800462402,0.004399053867298564,-0.005335534130787363,0.6277687117479187,-0.0067240596496028655,0.006563074048699267,-0.8612919178927854
2024-03-06 14:26:38.580,0.6523770450533094,1.5436631476256806,-9.832598453888183,0.004043037170027336,-0.0054489729386872,0.6108063011711571,-0.019789177466388305,0.005707972570699703,-0.8641157466736371
2024-03-06 14:26:38.634,0.6939870877951928,1.5085201925276501,-9.82582159236362,0.003598686138934618,-0.005828737939289406,0.5935316999615035,-0.029241073699507614,-0.0004918053445440661,-0.8653609050176553
2024-03-06 14:26:38.689,0.7296951810461895,1.6396812199393824,-9.806900005646142,0.0033782462431029116,-0.006049639086023823,0.5760502668608353,-0.01825786189837544,-0.001062324736732731,-0.8619551603230751
2024-03-06 14:26:38.746,0.7419355799840162,1.8145186779643852,-9.773150553525726,0.0035400875593923453,-0.0061458536675007055,0.5583053338668583,-0.0030062631091232928,-0.006252331148275012,-0.861852027919015
2024-03-06 14:26:38.799,0.7358625152576824,1.8333398331884934,-9.813148062237957,0.0037356430297257382,-0.006078627203821627,0.5402630783798595,0.0018369814913776483,-0.001815500280338416,-0.8637179942542139
2024-03-06 14:26:38.852,0.6490640455952228,1.7144157202586514,-9.895995999969733,0.0036645644819197224,-0.00599705078367314,0.521957953930793,-0.006699880947506851,0.004482739586089548,-0.8641965867565721
2024-03-06 14:26:38.907,0.6545413687647229,1.5767592187833783,-9.855321233513408,0.0032534939230862976,-0.005810127492752646,0.5033961658007015,-0.015874193107776095,0.015245509390728522,-0.8647703274352948
2024-03-06 14:26:38.964,0.6402987391639168,1.5424379229877758,-9.730696588507364,0.0027978274396123896,-0.0061301931190462225,0.48457735272455155,-0.027991771238987575,-0.0012453134478638797,-0.8656222842407955
2024-03-06 14:26:39.028,0.8107573869519967,1.5960863964628371,-9.749377707747497,0.002575472072039167,-0.006388368270511241,0.46552406112950556,-0.018696803781315975,-0.003929605932819236,-0.8660135941025247
2024-03-06 14:26:39.081,0.7161843293924809,1.8108939823176775,-9.914700588537631,0.002719767572969667,-0.006480098202626357,0.44625532621419267,-0.002656827985928976,-0.0053409279044068295,-0.8659978799939261
2024-03-06 14:26:39.135,0.7055335546776548,1.8299770952865186,-9.907089448290355,0.002933625245909627,-0.006218368429327071,0.426894800572062,0.006411459883914766,0.005744105435668254,-0.8609033302904314
2024-03-06 14:26:39.188,0.6633023867468147,1.7244573212719305,-9.759843910343909,0.00257379227359003,-0.006301124584710144,0.40741425842996193,-0.020252666408540947,0.0035243793824242487,-0.8573033923265612
2024-03-06 14:26:39.246,0.7869308476104592,1.4942967438053956,-9.705658820468374,0.002301331858885174,-0.006532256268066836,0.3875898840845735,-0.019679268618331257,-0.003454940137169312,-0.86408735079913
2024-03-06 14:26:39.298,0.6973956685935342,1.6277133063288605,-9.849570503152819,0.0012519583448938692,-0.0066914206340773184,0.3676693540184259,-0.04687264834296252,0.0117004496735706,-0.860257482450874
2024-03-06 14:26:39.356,0.6548858140370096,1.8581101370382898,-9.918101685286326,0.002200506781051869,-0.006395100130674223,0.3474696520942989,0.033799021624019536,-0.0026008218091960046,-0.8654675069029322
2024-03-06 14:26:39.414,0.7557918784455295,1.86586080104215,-9.829144830548776,0.002818320151557015,-0.006503507968049134,0.3272134005648789,0.015570626870197498,-0.012917505791609739,-0.8608187904305706
2024-03-06 14:26:39.469,0.811881675690794,1.5088351890904879,-9.731428608016243,0.0020153299616768776,-0.006890838254214491,0.30679450417481646,-0.041591936788573564,-0.0037621724132493248,-0.8609172155940934
2024-03-06 14:26:39.520,0.6298468556514106,1.3918236051844397,-9.816593676203603,-0.011783996677797592,-0.005222037364515252,0.28719403115957914,-0.5059284826263166,0.24331893024903561,-0.8136641898679353
2024-03-06 14:26:39.573,0.8071417056706482,2.1773425992164084,-9.718772773018655,-0.006625079208551358,-0.0023916961892601093,0.26651667941930535,0.2299220067984608,0.05523611536220948,-0.8614647173610351
2024-03-06 14:26:39.630,2.2391266755801995,5.746217200712229,-9.777718131743722,0.0038470441466664394,-0.002830013769145974,0.24423640653216316,0.39557225142325103,-0.13122561690074297,-0.9217968448032503
2024-03-06 14:26:39.687,2.1796358878152167,2.8478354842033147,-10.051982279260553,-0.0005746856248275971,-0.003701857237343463,0.22322189483366087,-0.18299796028763524,0.010673948036851453,-0.8639061629998247
2024-03-06 14:26:39.742,0.9086337265648693,0.9145024671315907,-9.278258287169809,-0.005858711671638319,-0.0034481015584858087,0.20317440438918055,-0.20539479821764778,0.06240251862108315,-0.8195371157431803
2024-03-06 14:26:39.795,1.1763388081516333,2.19581219182683,-9.864530802619578,-0.0036077166506534265,-0.0033464638873384454,0.18269169052281967,0.08690120713687124,-0.010773070724609873,-0.8353511537012377
2024-03-06 14:26:39.850,1.845736946787141,3.375693835285133,-10.133110902468994,-0.0005117617848208711,-0.0036832529421676743,0.16124890202022654,0.11623176334764423,-0.0348121161384091,-0.87109583855853
2024-03-06 14:26:39.932,1.474689226402761,2.1809482536829443,-9.94192435681993,-0.001466479327097416,-0.0036559877614806783,0.13978788431390402,-0.040421266952475776,0.009034237005342019,-0.8681904057500005
2024-03-06 14:26:39.988,1.170175449523192,1.2975769345169668,-9.618396413942596,-0.002625435759674379,-0.0034995127858373568,0.11868207920303048,-0.04763754409559369,0.015334988855978905,-0.85117570228345
2024-03-06 14:26:40.045,1.0308953152730491,1.630272213297452,-9.621469219499334,-0.0023213291191137393,-0.00360820559088641,0.09813741489153856,0.008851780870461522,-0.0034730618699926152,-0.8267210679311755
2024-03-06 14:26:40.100,1.1828021923332364,1.7601438107506053,-9.876781046655184,-0.0017837735291927666,-0.003958858120207495,0.07837321857877903,0.01705097302166665,-0.014321715105704918,-0.7937742036852655
2024-03-06 14:26:40.156,1.158889642354686,1.4995015838303782,-9.96856670044651,-0.0019182267173385975,-0.004342935584291201,0.05956637104728895,-0.009701008766335763,-0.013166167414741881,-0.7540773615765775
2024-03-06 14:26:40.212,1.0514774442414292,1.236036407362221,-9.826316683420771,-0.002142343565491095,-0.004447171713010097,0.041866784733069685,-0.012238385408455859,-0.0018973644491830813,-0.7088646155907876
2024-03-06 14:26:40.265,0.9677091473916857,1.166761420419836,-9.685468120538745,-0.0021223092767947136,-0.004473360248963562,0.025307628130395537,-0.002133623062179775,0.000473253284181034,-0.6627453884173522
2024-03-06 14:26:40.320,1.0167430486959446,1.1014225544197949,-9.743037357092923,-0.0028679818937641347,-0.004156558922628229,0.01036051790852386,-0.03192439075527616,0.01521800300681346,-0.5978050065627629
2024-03-06 14:26:40.374,1.362351205218666,1.0817538913274665,-9.866075773565225,-0.0026218295309918477,-0.004216608625564307,-0.0031274901956568034,0.0075701698458825,-0.0010505317958570412,-0.5395688681411976
2024-03-06 14:26:40.428,1.3573552069951635,1.148515163385986,-9.89425591695397,-0.0019450822077017964,-0.004212474221857519,-0.015633829817774773,0.024964735705094127,0.0012298924031684771,-0.5003870794702644
2024-03-06 14:26:40.482,1.4473315222990628,0.8117617479061251,-9.829084294584302,-0.003591444580652302,-0.0034683251251362264,-0.026420676963992612,-0.06782419441719847,0.030266089529515407,-0.43118191712549075
2024-03-06 14:26:40.538,1.698481548463405,0.7032466252654996,-9.75017054261761,-0.005255002552473827,-0.0017997736659295075,-0.03559694827989555,-0.0689860782059382,0.06687343052251953,-0.36664251627797967
2024-03-06 14:26:40.594,1.8522272374587234,1.4825162908683243,-9.727078307344584,-0.002655696329617681,-0.001415378407351123,-0.043943728931356514,0.10285933093160737,0.019939477795491326,-0.33427462397935087
2024-03-06 14:26:40.647,2.046217253099121,1.41083328337176,-9.803358744856627,-0.001587618174328704,-0.0014767218678463517,-0.05148001863885166,0.0423251719444437,-0.00011304162501146221,-0.3018578526820151
2024-03-06 14:26:40.700,1.8763317533834658,0.4087632618873135,-9.901988408526956,-0.0026706385604679675,-0.0009813227153155257,-0.058347835180359194,-0.044588551280040765,0.01828022019654127,-0.27501559443712176
2024-03-06 14:26:40.754,1.7465211669238476,0.09364555727138797,-9.923021955346577,-0.00308405281223132,-0.0008053273227555904,-0.06449449275350705,-0.01715927147033866,0.006810437655379247,-0.24629528216185953
2024-03-06 14:26:40.815,1.8041458404516448,0.395137937597898,-9.767302127431698,-0.0025354177183404564,-0.0008833427129776679,-0.06982773659090881,0.021879023520312225,-0.0011693203521523712,-0.2138345622603828
2024-03-06 14:26:40.866,1.690918126854278,0.33482570007805645,-9.712202013170065,-0.0026207382408767526,-0.0008748486511911711,-0.07456985057248977,-0.003627846377061738,0.0005866701986362759,-0.1901770482524581
2024-03-06 14:26:40.918,1.5345206686662938,0.09334784256225455,-9.829614310236341,-0.002597552046362747,-0.0008725888016058526,-0.07859879754142633,0.0007469986369652542,0.0005678131791685518,-0.16163247301498318
2024-03-06 14:26:40.975,1.5033149494146345,0.07860209070266538,-9.897050350206376,-0.0025245547407071246,-0.0008919963187224586,-0.08184224403597823,0.0028308328298265266,-0.00022571310726081492,-0.13016092462104298
2024-03-06 14:26:41.028,1.4322841674587758,-0.021706404064757184,-9.819874725478131,-0.002558320821019222,-0.0008802006694241389,-0.0843050276239782,-0.0014918440130996552,0.000604759752832633,-0.09885054078676297
2024-03-06 14:26:41.081,1.351148873652711,-0.12705626119406024,-9.748221098297018,-0.0025587119133411926,-0.0008783985385141908,-0.08596070846223954,-9.404444396108472e-05,0.0002351158611619076,-0.06646810602818981
2024-03-06 14:26:41.133,1.2709918177494939,-0.16172186983952733,-9.787850175816232,-0.0026492400553143735,-0.0008463328255594997,-0.08676269190528327,-0.0037524364316493183,0.001049253898675365,-0.03219368162079285
2024-03-06 14:26:41.189,1.1872539314907504,-0.18394106299989463,-9.854760018556602,-0.001976214509429073,-0.0009445271754567454,-0.08678766298316304,0.02715922453820499,-0.0015752838314124092,-0.0010296255589679459
2024-03-06 14:26:41.246,1.09036265699333,-0.2528926208405535,-9.851980486464683,0.0006786100863681473,-0.0011369837946105486,-0.08678783856564126,0.10646040201228901,0.0015467949629386765,-0.00012137850376282229
2024-03-06 14:26:41.295,0.8270714330201567,-1.1427634434952068,-9.821785892442726,0.001783181063295109,-0.0012404795836820273,-0.08678783872628897,0.04437542641431297,-0.00028980033718258746,-5.2277330999123016e-05
2024-03-06 14:26:41.348,0.7867119250611325,-2.201122278573703,-9.69765326512948,0.00034940616487770396,-0.0006815197644309481,-0.08679125008885218,-0.05907519234819128,0.017296580505711052,-7.295319750999033e-05
2024-03-06 14:26:41.402,0.6061278985230971,-2.3210562594478303,-9.747746403203283,-0.0008993186195971429,-0.00015919748940395465,-0.08679140493654408,-0.05157385326940628,0.01647886548270862,4.133939344920661e-05
2024-03-06 14:26:41.456,0.7089234959286653,-1.3230920315462225,-9.895089823147673,-0.001004401692422375,-0.0001004291796347849,-0.08678598058802996,-0.0043914460137312655,0.0019768317296285256,0.00022047391567083397
2024-03-06 14:26:41.530,0.7610200717467595,-0.9521346960134157,-9.848517270503212,-0.0002636536956841944,-0.00020281155601451073,-0.08678274605017511,0.029873574762063034,-0.0015084133627754376,0.00012549144631960457
2024-03-06 14:26:41.586,0.630170350532338,-1.0007533060494636,-9.851979368877647,0.0005819798240076539,-0.00028497356742314536,-0.08678365088588502,0.03398292842147771,-0.0003386554017117844,-4.4308269121810045e-05
2024-03-06 14:26:41.642,0.5542993631500122,-1.1761661234922034,-9.812494087557123,0.0006078444793275322,-0.0002706260585997666,-0.08678903216767093,0.0009808309439938677,0.0006613841183031472,-0.00021675123090279206
2024-03-06 14:26:41.695,0.5194084355702343,-1.3670431499190623,-9.770891351331528,0.00043843317358176144,-0.00021526451914744517,-0.0867934664976136,-0.00694310618762765,0.0016179034028502442,-0.00017692063907468708
2024-03-06 14:26:41.748,0.4857782189271514,-1.091885887378659,-9.777703509979993,0.0005352497774290373,-0.0002367548011109,-0.08679092277349404,0.003932678422897608,-0.0005201892867850397,0.00010154755787993108
2024-03-06 14:26:41.801,0.4754153436551033,-0.8894416692326542,-9.82332127076631,0.0005221256108764807,-0.00022891494108069857,-0.08679167328727526,-0.0005502084779287003,0.00026683248323824407,-3.014360931414661e-05
2024-03-06 14:26:41.854,0.4235842966215693,-0.940654411238269,-9.832930284105759,0.0005273186241811556,-0.00022652957249283845,-0.08679188238352677,0.00019865399171367366,0.00011307849530630376,-8.501062645504607e-06
2024-03-06 14:26:41.912,0.40232632144480723,-0.843019790021694,-9.798980318244551,0.0005419515613819922,-0.00022723667727310638,-0.08679188908506251,0.0005855636342032003,2.2623126103418218e-05,-4.1490672506460085e-07
2024-03-06 14:26:41.963,0.3754917673998697,-0.7913192183642833,-9.799311775933113,0.0005419515613819922,-0.00022723667727310638,-0.08679188908506251,-0.0,0.0,-0.0
2024-03-06 14:26:42.017,0.34954093075209536,-0.7479679531917296,-9.80928372566265,0.0005450323682942878,-0.00022565994448944327,-0.08679205164878544,0.00011729219923944339,7.35231840313433e-05,-6.594168107270339e-06
2024-03-06 14:26:42.077,0.328128801323875,-0.6952074957493858,-9.810836705982059,0.0005450323682942878,-0.00022565994448944327,-0.08679205164878544,-0.0,0.0,-0.0
2024-03-06 14:26:42.131,0.3039796168422695,-0.6494421087004733,-9.809624124047504,0.0005450323682942878,-0.00022565994448944327,-0.08679205164878544,-0.0,0.0,-0.0
2024-03-06 14:26:42.183,0.2870670034173716,-0.6111019524594773,-9.807837568037478,0.0005450323682942878,-0.00022565994448944327,-0.08679205164878544,-0.0,0.0,-0.0
2024-03-06 14:26:42.237,0.26479809800656234,-0.5709307579160959,-9.8090615121069,0.0005434975756699883,-0.00022273956058974103,-0.0867921826375773,-7.129962544358116e-05,0.00011104327919837147,-5.303821275242516e-06
2024-03-06 14:26:42.292,0.24980278954380913,-0.534329770830629,-9.808655828012668,0.0005412213842796476,-0.00021892228601605058,-0.08679234034223604,-0.0001039575783103116,0.00014420902724358598,-6.387172574888424e-06
2024-03-06 14:26:42.345,0.23250848376617517,-0.5000131520203587,-9.809021651502603,0.0005378835501129863,-0.0002142375107573799,-0.08679250102390468,-0.00014927476214672195,0.0001750923545760651,-6.513337086627342e-06
2024-03-06 14:26:42.395,0.21705681125642975,-0.4682338923402797,-9.809049777443018,0.0005339384640635501,-0.00020964119925963008,-0.08679260481434259,-0.0001731656885953347,0.00016946022420488357,-4.220930408800158e-06
2024-03-06 14:26:42.447,0.20267607816589997,-0.4385308299771768,-9.809130802503162,0.0005296617957963438,-0.00020520878844248664,-0.08679270346019599,-0.00018580988047784785,0.0001617778973647277,-4.0077014818099485e-06
2024-03-06 14:26:42.500,0.1892236058829316,-0.41065671917191454,-9.809074830019087,0.0005250871682914017,-0.00020096010584905196,-0.08679279023722175,-0.00019704535095904586,0.00015342233418301777,-3.52452301170544e-06
2024-03-06 14:26:42.552,0.17662963252923333,-0.3846434315277124,-9.809208754198954,0.0005202815104781208,-0.0001969134964356956,-0.0867928667103812,-0.00020555008845048674,0.0001445680620674097,-3.1045742193637452e-06
2024-03-06 14:26:42.608,0.16483802846005238,-0.36032820097008883,-9.809205587702353,0.0005155168932934937,-0.00019315375804400452,-0.0867929386920348,-0.00020291869593340673,0.0001332791005289037,-2.9190576115131014e-06
