Timestamp,Linear_Acceleration_X,Linear_Acceleration_Y,Linear_Acceleration_Z,Orientation_X,Orientation_Y,Orientation_Z,Angular_Velocity_X,Angular_Velocity_Y,Angular_Velocity_Z
2024-03-06 14:17:21.363,1.9427253726683922e-05,-0.006772615730648718,-9.810475259708019,0.00040649251636391695,6.035259723551127e-06,-2.8822229574634922e-08,-0.0,0.0,-0.0
2024-03-06 14:17:21.417,1.945951058899847e-05,-0.006771333616028527,-9.810478146807862,0.0004053972811562595,6.074093787194201e-06,-2.9183753744780065e-08,-4.380941186828223e-05,1.5533551859420772e-06,-1.5355095216576913e-08
2024-03-06 14:17:21.484,1.81581446136559e-05,-0.006749130122928754,-9.81039768054124,0.0004053972811562595,6.074093787194201e-06,-2.9183753744780065e-08,-0.0,0.0,-0.0
2024-03-06 14:17:21.540,2.0922424398438407e-05,-0.006601792442987055,-9.810558519942235,0.0004053972811562595,6.074093787194201e-06,-2.9183753744780065e-08,-0.0,0.0,-0.0
2024-03-06 14:17:21.610,1.9412189333222907e-05,-0.006753831118919992,-9.810478239940117,0.0004053972811562595,6.074093787194201e-06,-2.9183753744780065e-08,-0.0,0.0,-0.0
2024-03-06 14:17:21.663,1.9564673218159904e-05,-0.006784086595605788,-9.810475352840271,0.0004053972811562595,6.074093787194201e-06,-2.9183753744780065e-08,-0.0,0.0,-0.0
2024-03-06 14:17:21.716,1.9540750133561565e-05,-0.006790170932972717,-9.810478146807862,0.0004053972811562595,6.074093787194201e-06,-2.9183753744780065e-08,-0.0,0.0,-0.0
2024-03-06 14:17:21.767,1.9304823844049567e-05,-0.00679221343060221,-9.810475259708019,0.0004053972811562595,6.074093787194201e-06,-2.9183753744780065e-08,-0.0,0.0,-0.0
2024-03-06 14:17:21.815,1.705231845779909e-05,-0.0067925698160841725,-9.810477588014344,0.0004053972811562595,6.074093787194201e-06,-2.9183753744780065e-08,-0.0,0.0,-0.0
2024-03-06 14:17:21.868,1.7363694345849002e-05,-0.006788383366696023,-9.81047805367561,0.00040429832065728256,6.125673510101301e-06,-2.9504720134376667e-08,-4.3958423537107514e-05,2.063182166378286e-06,-1.3939805396492055e-08
2024-03-06 14:17:21.918,1.6079161504592885e-05,-0.006815772661914788,-9.810475445972525,0.00040429832065728256,6.125673510101301e-06,-2.9504720134376667e-08,-0.0,0.0,-0.0
2024-03-06 14:17:21.970,2.0594889792348546e-05,-0.006606066885983422,-9.810466970937497,0.00040429832065728256,6.125673510101301e-06,-2.9504720134376667e-08,-0.0,0.0,-0.0
2024-03-06 14:17:22.019,1.8640916879537776e-05,-0.006718180610868999,-9.810489602074986,0.00040429832065728256,6.125673510101301e-06,-2.9504720134376667e-08,-0.0,0.0,-0.0
2024-03-06 14:17:22.074,1.8885511801116535e-05,-0.00678541623132189,-9.81047833307237,0.00040429832065728256,6.125673510101301e-06,-2.9504720134376667e-08,-0.0,0.0,-0.0
2024-03-06 14:17:22.128,1.9237242795393724e-05,-0.006805048810395539,-9.810475259708019,0.00040429832065728256,6.125673510101301e-06,-2.9504720134376667e-08,-0.0,0.0,-0.0
2024-03-06 14:17:22.181,1.9400733453078515e-05,-0.006803400624175271,-9.810479078130392,0.00040429832065728256,6.125673510101301e-06,-2.9504720134376667e-08,-0.0,0.0,-0.0
2024-03-06 14:17:22.232,1.9935979652775264e-05,-0.006801054446279279,-9.810476749824067,0.00040429832065728256,6.125673510101301e-06,-2.9504720134376667e-08,-0.0,0.0,-0.0
2024-03-06 14:17:22.285,1.9891267509801487e-05,-0.0067994636946467,-9.810475352840271,0.0004032105600594842,6.209002245355877e-06,-2.9752587658049053e-08,-4.351042748594346e-05,3.333143750498788e-06,-1.1525191316154608e-08
2024-03-06 14:17:22.338,1.7941778054827028e-05,-0.006822960989373027,-9.810477774278851,0.0004032105600594842,6.209002245355877e-06,-2.9752587658049053e-08,-0.0,0.0,-0.0
2024-03-06 14:17:22.393,2.3016010581113152e-05,-0.006608838252632296,-9.810477681146597,0.004902676140695337,4.3034891670028525e-05,3.176649151842693e-05,0.17997935389220032,0.0014792666883688434,0.0012657300903247762
2024-03-06 14:17:22.446,0.003981252612555381,0.11003151171618294,-9.851376989464995,0.0023594685195741463,5.361968828022931e-06,0.0001026780168287146,-0.1017290661356156,-0.0014969933702442435,0.002835627234517064
2024-03-06 14:17:22.498,0.0280093222838706,-1.3019970433147194,-9.772241955265086,-0.0016212910913340726,-0.00016986135392937698,0.0001508129108600234,-0.15923089563973564,-0.0069956929087433,0.0019132350112679997
2024-03-06 14:17:22.550,0.030990719955335082,-0.18247800478117704,-9.749427719767379,0.002464357720672647,-0.0001368489296358505,0.000616672729127671,0.16342882341208714,0.0013416433671614393,0.01860343474411993
2024-03-06 14:17:22.603,0.11962640460536081,0.3089987809861192,-9.848391914490623,0.00727638294283807,-0.0001450592082167791,0.0017668537733278042,0.19248992457660463,-0.00011258480518670039,0.045983257686166214
2024-03-06 14:17:22.656,0.26528850298343354,-1.4332488793570615,-9.906773729952556,0.003605958332833964,-0.0001599966459354246,0.003546425628459342,-0.14680845046981447,-8.137410148527783e-05,0.0712056640164292
2024-03-06 14:17:22.714,0.11458635164294026,-2.2428069944650337,-9.761139659380426,-0.0006651543118836073,-0.00018408979045238713,0.005786761208925796,-0.1708308082294614,-0.00041755770021561524,0.0896427876604932
2024-03-06 14:17:22.770,0.11126857697409817,-0.4231639005417387,-9.672122454942908,0.0005442537529383083,0.00015115581204386684,0.008671716113778722,0.04843595180824241,0.013192528072579653,0.11538533619329418
2024-03-06 14:17:22.821,0.09154840810786112,0.9039521020822625,-9.779582453185036,0.0011329092829145536,0.000433829321369832,0.01158839912797434,0.0235937385313645,0.011234869523637767,0.11666433317317808
2024-03-06 14:17:22.881,-0.06679916997334671,0.47322255348847225,-9.895793437319375,0.0012824164715782751,0.0005198979811893454,0.014511031357583892,0.005960525253378819,0.0035237562732182673,0.11691347376954984
2024-03-06 14:17:22.960,0.03547318242221856,0.23700963322190446,-9.879978463166484,0.0025880117225868787,0.0006865579527062461,0.017445641459942273,0.05223851438690641,0.006212801606933922,0.11741143633455814
2024-03-06 14:17:23.014,0.1396565566270292,-0.013766504053872352,-9.762099387247982,0.003778927461060641,0.00103617867217266,0.020958720313286158,0.04773634381244549,0.01368504559689419,0.140531782443685
2024-03-06 14:17:23.069,0.24603034357943335,-0.6949131134286813,-9.749245180551425,0.0024672486586254337,0.0010235287771585327,0.02525599186073175,-0.05263443546385274,0.0010211124512084489,0.1718811765843522
2024-03-06 14:17:23.122,-0.038144249363499264,-0.7626838707161346,-9.808970335631177,0.0013035945877382118,0.0010430857300018361,0.030009523685742532,-0.04670429850217575,0.0022100019562079623,0.19016435049127856
2024-03-06 14:17:23.192,0.09955695604797941,-0.037859590904937,-9.832648652172571,0.0019172059162817733,0.001175764816696788,0.035206861104938536,0.024459147467905895,0.004973597674025755,0.20802110329188434
2024-03-06 14:17:23.246,0.13561837705989627,0.352391774501204,-9.815584308845178,0.00208978002663459,0.0013483485815770687,0.0405901672557512,0.006866001254768455,0.0071155771170806435,0.21548123143660033
2024-03-06 14:17:23.298,0.08465384196737227,0.1963891286721029,-9.80271939193952,0.0017856994982752802,0.0015137920392662347,0.04594199925836255,-0.012194194621318323,0.007500613229635477,0.21424502284427177
2024-03-06 14:17:23.354,0.16552622706108952,0.16748487765041295,-9.811263251700973,0.0021610670953135683,0.0016481073993324172,0.0513154258590668,0.014911492642911696,0.005157133274623148,0.21520430861727338
2024-03-06 14:17:23.416,0.277614938296972,0.21462904259461799,-9.818288962605655,0.002894826528965189,0.001732855280844316,0.05737137262701735,0.029099743287582754,0.0026012275264073537,0.24263916393130874
2024-03-06 14:17:23.471,0.20185441013232347,-0.024799567749930584,-9.816938824333363,0.002527486555680976,0.0017399108193992994,0.06411580054069464,-0.015085917643296524,0.0018322057039354166,0.2702473639104363
2024-03-06 14:17:23.529,-0.012940057535359697,-0.11390857439549892,-9.79951676002205,0.0023078099394779634,0.0017739438138910226,0.07154635495484908,-0.00916768978537964,0.002640054034570568,0.29788828675803436
2024-03-06 14:17:23.584,0.07580754831090107,0.17422900173284198,-9.79343960111456,0.0024665856268935456,0.001992891655538425,0.07903398276177483,0.0064144251527754655,0.009060832386105977,0.30034896480026785
2024-03-06 14:17:23.644,0.29099729217974296,0.26505191031713277,-9.811885095754509,0.0027195141495449577,0.0022152541837428073,0.08608671523416978,0.010221354765542822,0.008882105626222964,0.28307442539080135
2024-03-06 14:17:23.698,0.410880009569339,0.18805149718827907,-9.835803227847476,0.003037158461245885,0.0024693161748572073,0.09288311192491758,0.01293039852837791,0.009912915674467478,0.2729523228539158
2024-03-06 14:17:23.751,0.38812698815532365,0.04078049193620208,-9.826001896405502,0.0025019720085856486,0.0024219243679908698,0.10044438347414927,-0.022156309328257115,0.0009236351674422514,0.30381980434499223
2024-03-06 14:17:23.807,0.1979293687903343,-0.08979247805716807,-9.776256234767782,0.0016770289895803273,0.0021837532672872545,0.10988544196662459,-0.03455230758641516,-0.0054510276827375356,0.3796774844902154
2024-03-06 14:17:23.864,-0.09632653015564145,0.3706506801273816,-9.786197357721566,0.0017582925343346731,0.002326611949348993,0.12009271970961448,0.002983506994586482,0.006141482301183806,0.41101694039416486
2024-03-06 14:17:23.918,0.0943589998061685,0.6481296307830037,-9.836950244675892,0.0020046718420359076,0.00260682986140798,0.13007678092668593,0.010180507506099565,0.01086646130272605,0.40253001991507725
2024-03-06 14:17:23.972,0.4298060273447936,0.6250475760293879,-9.833593478879642,0.0017916077213554619,0.0027875739353750454,0.139703492746761,-0.008497233924096686,0.009103370109732086,0.38858547212522954
2024-03-06 14:17:24.027,0.472639242904632,0.5217758967326295,-9.813396259692302,0.0020888450923059773,0.0031030648427929127,0.14905814102291925,0.012479925516586526,0.011776078707186192,0.37816296350117623
2024-03-06 14:17:24.081,0.38773551255044425,0.38785219925994785,-9.808567445504535,0.0014726744280584437,0.0030673120762809416,0.15975293305422752,-0.025807254686625956,0.003081469858061743,0.4329048215373139
2024-03-06 14:17:24.134,0.1222048537037824,0.39830360383256685,-9.798728116103323,0.0012156219375737418,0.003064070170522106,0.171844020928381,-0.01156395021126599,0.0023346139978940067,0.490398866818602
2024-03-06 14:17:24.184,0.15827987056945134,0.498873569037484,-9.799710195711608,0.0011371672115428018,0.0032037976090712687,0.1845104092147055,-0.0036609822729551447,0.006895709236842695,0.5148825079371643
2024-03-06 14:17:24.242,0.3768684512746604,0.6354386005249167,-9.802695084421476,0.0010802783125227937,0.0036111572003988727,0.19711074330185877,-0.0009555423058988516,0.01731075679059372,0.5134326733196195
2024-03-06 14:17:24.297,0.5070311620518665,0.879550118830934,-9.812477789412842,0.0006614663408048889,0.003853823466837291,0.20938534274043802,-0.01634396457442992,0.013512976746939442,0.5013898815781924
2024-03-06 14:17:24.351,0.5570716192846628,0.8208426606254878,-9.822758193164443,0.0005539842130237088,0.004215064595730744,0.2215535712822444,-0.003179305988369129,0.01572712310192626,0.4984243305166947
2024-03-06 14:17:24.407,0.3288299445804887,0.804514091200923,-9.81988934724186,0.0006059707026480718,0.004478810492072096,0.23459230539797107,0.0020918956144846627,0.010659924818185328,0.5356805850657474
2024-03-06 14:17:24.461,0.42204606030196967,0.6737162271891464,-9.798326529828223,0.000898681643904391,0.004691778544811895,0.24890849245842558,0.010804317529737623,0.006680584883652738,0.5902101028275416
2024-03-06 14:17:24.517,0.429753743771053,0.5482199545165359,-9.891963280280933,0.0007221251793662528,0.0048548505164081115,0.26370904096145303,-0.007994976419663399,0.009222767637229784,0.6124521002807934
2024-03-06 14:17:24.572,0.5953124994543032,0.5618592573750558,-9.798206389221804,0.0003724471100520454,0.005152133333978685,0.2783831035417095,-0.013334444855011578,0.016183970018110828,0.6097328798462937
2024-03-06 14:17:24.626,0.4649189749398569,0.8414556920395789,-9.67312195028251,-5.4217876420650625e-05,0.005426807470873224,0.2933215277552482,-0.016599648431985373,0.016188023849984384,0.6234869921276489
2024-03-06 14:17:24.680,0.5378637207382827,0.8123806757559865,-9.774767981364235,-0.00031369554900131876,0.0058977967893521395,0.3082681879676989,-0.007995656736974431,0.021923985958281423,0.6268814826764446
2024-03-06 14:17:24.737,0.5390842945843013,0.8887061019670114,-9.91242220109931,0.0001295208957887682,0.0064998046914559226,0.3235136635782485,0.020328639886378473,0.01877823888526957,0.6428797576137162
2024-03-06 14:17:24.809,0.6801724343664999,0.7673458064583725,-9.860552565298805,0.0003039613248025396,0.006733914575600635,0.33985488286379956,0.00527037808887401,0.008274734460164376,0.6929358962442421
2024-03-06 14:17:24.862,0.74951540960438,0.37670300619271274,-9.748253694585582,-0.0006920136022820486,0.006477740135978747,0.35679391488053963,-0.04553277104299502,0.00498214127490566,0.7225480202571232
2024-03-06 14:17:24.918,0.6701680862544361,0.5519976700929635,-9.74598266459525,-0.002766497606039826,0.0055280815538689635,0.37361534784117895,-0.09551137206136333,-0.0063603703474399715,0.72217368950246
2024-03-06 14:17:24.975,0.6082124719220808,1.3319142345081771,-9.797321632817944,-0.0032645912916401867,0.005651980974044259,0.3904418283035788,-0.021329497778241363,0.01133107680378188,0.7282494786313798
2024-03-06 14:17:25.028,0.48352585322240504,1.9453831955655077,-9.858062953910594,-0.0020745507521996824,0.006794773694866445,0.4075617027031991,0.05638760862837703,0.024004032961856207,0.7472749128406104
2024-03-06 14:17:25.081,0.5787170159029142,1.76391458142582,-9.857105461217111,-0.0010455586824903668,0.007839279855668194,0.4248520166473581,0.04882701375613306,0.023027958259696793,0.7610752405771065
2024-03-06 14:17:25.137,0.6374532170499544,0.9649717430923517,-9.797462635049044,-0.001088619264615524,0.00812047744152179,0.44246877558208847,-0.0029097833761332617,0.012782119265760306,0.7820767094335248
2024-03-06 14:17:25.199,0.7212648058454458,0.35795735794275507,-9.752580246532716,-0.0019090362836949497,0.00778826178370224,0.4603436220775176,-0.04159490864368738,0.003930382923136939,0.8009754555054149
2024-03-06 14:17:25.254,0.7553613502314046,0.43665995508115024,-9.769075738058552,-0.0032878259032482183,0.006970096739542607,0.47834327307501595,-0.07030520042094915,-0.0034902185509279493,0.8148305318450105
2024-03-06 14:17:25.311,0.6685806528221692,0.9426851309119335,-9.801715519384024,-0.004678048439401478,0.005979426519524455,0.49619328604163776,-0.0739000391395833,-0.009279688176751136,0.8170914391830046
2024-03-06 14:17:25.368,0.5878194538142606,1.7778697976177933,-9.8125837739168,-0.004062880064047427,0.006772032396688521,0.5142016110235741,0.030505212056877607,0.015107910370538272,0.8350350909669582
2024-03-06 14:17:25.423,0.46688444091835385,2.0280815861819677,-9.84195936290554,-0.0031896047058860167,0.00783818768143501,0.5322057565531817,0.04480728695434449,0.019634806335482785,0.8455770036390798
2024-03-06 14:17:25.482,0.5292819677913745,1.5070502803571855,-9.82621181650385,-0.0030609294286722275,0.00829470703262447,0.5503596576194737,0.006586949037684401,0.014214928710011319,0.8638067037882079
2024-03-06 14:17:25.538,0.5937538875439686,0.8502524466133912,-9.786039684817172,-0.004835568738856501,0.006809108480872162,0.5681917506597354,-0.09914750707224725,-0.010870112891818768,0.8595466495393332
2024-03-06 14:17:25.593,0.652849212479489,1.0365747412524076,-9.746166693927254,-0.006319426243732734,0.005155064364320407,0.5857975708766185,-0.09316523634788199,-0.022746290863690073,0.8614465847055428
2024-03-06 14:17:25.648,0.4626842694385929,1.9790360229733985,-9.778690711862197,-0.005655792213355765,0.005746100710397465,0.6032886552153097,0.028438619268924496,0.0024743191926539735,0.870429084840618
2024-03-06 14:17:25.703,0.2352809538139695,2.432722820370585,-9.85664957883849,-0.004756565992640068,0.006749450955480661,0.6205214669630856,0.045701740785641334,0.010471815225788208,0.8720282110360346
2024-03-06 14:17:25.760,0.23708324917476092,1.8917474346429863,-9.859094207348484,-0.005431913669699797,0.0061465585686315185,0.6373377820506685,-0.043229429844863144,-0.002609240242347096,0.8649160380756098
2024-03-06 14:17:25.814,0.23945078746230325,1.4815845521531885,-9.770755098845335,-0.0061466215485534645,0.005298974500680781,0.653850081687549,-0.05054335594865809,-0.009153405719911896,0.8645294061332137
2024-03-06 14:17:25.869,0.19184479277200583,1.746092397672392,-9.738148658866452,-0.006212398856046249,0.005207421632112681,0.6700643186234417,-0.011297151970363985,-0.002246108918872484,0.8652985367356719
2024-03-06 14:17:25.925,0.05528577922883002,1.9893213860174725,-9.817118569581726,-0.0058668111702525425,0.005524263248070846,0.6859586216686901,0.011811877823056972,-0.0004956098446642019,0.8651280074901055
2024-03-06 14:17:25.983,0.026619956961257567,1.8506412330244641,-9.87743660458432,-0.005804490575159596,0.005586274234928172,0.701510224456315,-0.003431004625252584,-0.00031831285841154796,0.86378999276407
2024-03-06 14:17:26.044,-0.023746681435889795,1.5650535423143481,-9.828166941891878,-0.006178211848436028,0.005113711934610008,0.7166983981327154,-0.030779974779378244,-0.0037599186807962285,0.8614737473748012
2024-03-06 14:17:26.108,-0.059823508559727165,1.5138937139803734,-9.764642177152679,-0.0063748436298843,0.004890831349467851,0.7315567974322538,-0.0187425331640243,-0.0014641477801782127,0.8617573650612985
2024-03-06 14:17:26.161,-0.11391488410564224,1.6363116135337463,-9.766142258352362,-0.006200526582192054,0.005268088181996801,0.7461338256448088,0.008763057673965988,0.004787859098906922,0.8655146830063418
2024-03-06 14:17:26.215,-0.15917779354558562,1.5853572931576316,-9.833897183156799,-0.006269627096910085,0.005282073005417065,0.7603659380664998,-0.008513971304310088,0.0021566000635944668,0.8656281734944421
2024-03-06 14:17:26.272,-0.1515547789360455,1.4001496868136953,-9.857570004895264,-0.006548430858658104,0.0047612898691740315,0.7742472395065263,-0.03006525354269888,-0.005672479788864965,0.8657177896262163
2024-03-06 14:17:26.348,-0.15775236366747827,1.3896875354702916,-9.810057934082156,-0.006713163579768059,0.004241766706407802,0.7877756315186414,-0.027080402593342708,-0.00895874566649248,0.8663635826721441
2024-03-06 14:17:26.402,-0.22820928214241434,1.5720115111464754,-9.757798167273675,-0.006645261008185019,0.004370503541567112,0.8009438081303718,-0.0011387648615122264,0.00039381525107487584,0.867290165799922
2024-03-06 14:17:26.459,-0.32919023252213203,1.654790216689649,-9.805633686401585,-0.006671856288719165,0.004526854282348337,0.8137295946023857,-0.0026060523772919978,0.004201348473885459,0.8669206945190133
2024-03-06 14:17:26.516,-0.34042714525779294,1.5308354952627699,-9.886852275366461,-0.006911403046011379,0.0042336921340421,0.8261105989301484,-0.022100815520866422,0.0004116120093587413,0.8651304171782869
2024-03-06 14:17:26.571,-0.33218200137719317,1.4726663240175857,-9.84178436740208,-0.006942919150310899,0.003997393312957246,0.838069097285205,-0.015402930190980765,-0.004884646085613038,0.8624787020985581
2024-03-06 14:17:26.626,-0.3728711393043137,1.5414964374002829,-9.728179875633517,-0.0069477245299809426,0.003964778253499674,0.8496270050049197,-0.008075416063660815,-0.0010273991420675739,0.8617595250854391
2024-03-06 14:17:26.681,-0.43712616277073113,1.5324186271490996,-9.757106939691628,-0.006970878417002011,0.003820065259077555,0.8608054180991334,-0.012251412985558614,-0.0027108063902941573,0.8628754379415553
2024-03-06 14:17:26.768,-0.4073396568192891,1.4929948946063036,-9.915568208606935,-0.007095799236857272,0.0035328978735789697,0.8716105697824004,-0.019265082468639116,-0.002110813526803594,0.865070702914485
2024-03-06 14:17:26.822,-0.44103002234592,1.488433160437186,-9.884421337297663,-0.007151118048030981,0.0033081921266448866,0.8819896599032689,-0.01569603769483247,-0.0030868584595108955,0.8635330017384658
2024-03-06 14:17:26.895,-0.48391316989010974,1.5422173974541133,-9.75675666928795,-0.00726738067536459,0.003254425023363492,0.8919193813919509,-0.0109166221477364,0.00253838750294932,0.8602762366810025
2024-03-06 14:17:26.950,-0.5576468302728718,1.5494206300746165,-9.71295386984884,-0.007380492919779606,0.003239624173514215,0.9014687458181823,-0.009516825407727924,0.0033068466722454113,0.8632794103235819
2024-03-06 14:17:27.008,-0.4904715606113434,1.5415386263109092,-9.889257974594686,-0.007478353243698958,0.0031249078666926297,0.9106050873552161,-0.012819106806223283,0.001105200241085583,0.8638848965306603
2024-03-06 14:17:27.061,-0.4993016739940407,1.5068581892645287,-9.926996467377228,-0.007456239756024012,0.0028788896125874035,0.9193217108639411,-0.015487878656245334,-0.005343446514786445,0.8642600437368604
2024-03-06 14:17:27.113,-0.4946812781470407,1.5015567288925935,-9.789423272702296,-0.007360234041710196,0.0025764223130480446,0.9275527724778002,-0.016284000432051113,-0.008814828242169155,0.8581622359106738
2024-03-06 14:17:27.182,-0.6045933452930667,1.479396968661579,-9.685043623729399,-0.00757822817658988,0.0023174138429262266,0.9353926212272162,-0.019671074373140193,0.0035561867707359688,0.8624675203989713
2024-03-06 14:17:27.255,-0.6298679108165545,1.5697293518519058,-9.806101862237606,-0.007742866395361144,0.0022955056658499023,0.9428182737772962,-0.01010975655604007,0.0052648471681790866,0.8650658097745162
2024-03-06 14:17:27.319,-0.5686695562888427,1.614075275307671,-9.970923225845132,-0.007783726545382723,0.0022292697908974112,0.9498052840098484,-0.010030450653408466,0.00015702318280902235,0.8652414820654941
2024-03-06 14:17:27.376,-0.5611905969020721,1.581092499535794,-9.869822949766208,-0.00759963796531152,0.0021404999480083837,0.9563005699503568,-0.00783848158835413,-0.00847261400436336,0.8585548834592016
2024-03-06 14:17:27.428,-0.6108460919669357,1.5013109528768263,-9.675894124926439,-0.007696577805655044,0.0019068756343773381,0.9623808241169494,-0.016895579559372462,0.0005358392482173097,0.8625205905595069
2024-03-06 14:17:27.483,-0.6537470190403071,1.4936064591874094,-9.73571511309457,-0.007814299006333777,0.001547098467409068,0.9680302875797737,-0.02199333639820336,1.0784239134925987e-06,0.8651637951059044
2024-03-06 14:17:27.535,-0.6041522287421267,1.5640716489705686,-9.958161126946827,-0.007881563070689268,0.0013797320274690902,0.9732300532768067,-0.014054757403571913,0.0002970932047751631,0.8658053216375029
2024-03-06 14:17:27.589,-0.6190970973587111,1.629246228289271,-9.930611395778898,-0.007750949105627633,0.0013458282128038068,0.9779445799726693,-0.006868706297187625,-0.005873805776573867,0.8600134344624322
2024-03-06 14:17:27.647,-0.6589804026456545,1.5958215749013234,-9.716834038907162,-0.007860606030637466,0.0012124442220681829,0.9822137887721987,-0.012972047977193708,0.002710409324465602,0.8617854700981885
2024-03-06 14:17:27.702,-0.7034650793341277,1.551555139823526,-9.666352911867204,-0.0079643541989147,0.001016106480819756,0.9860388276367364,-0.015416384556280515,0.002099245415496081,0.8645916835762977
2024-03-06 14:17:27.779,-0.6212037605639623,1.5870336969953789,-9.912941134013238,-0.00790576494486141,0.0008508004721223582,0.9894030644297052,-0.012985631376053273,-0.003896291587297431,0.8642699220458898
2024-03-06 14:17:27.833,-0.6161549330699243,1.593403011780648,-9.960266847188016,-0.007707759511853335,0.0007543601330120769,0.9922910641069665,-0.00931274783630665,-0.008786370917333884,0.8593679158467458
2024-03-06 14:17:27.889,-0.6925096944854647,1.5550668660472984,-9.785410948976914,-0.007762914566301688,0.00045079740854466973,0.9947268422325785,-0.019008173059809855,0.00017305416652603392,0.8623125513348608
2024-03-06 14:17:27.946,-0.7229066903591238,1.5581184141672784,-9.675397823150002,-0.00783067421360087,0.00019759313243247322,0.99670200478347,-0.017089038168936904,0.0010660537730373652,0.8633258017296541
2024-03-06 14:17:28.002,-0.6628933033253454,1.6528074775885966,-9.857171212587755,-0.007814560220924627,0.0001401491654492366,0.9982093147064477,-0.008946992422534411,-0.0013233052209861223,0.860679113133646
2024-03-06 14:17:28.054,-0.680695839083765,1.6496692349825697,-9.926785150295084,-0.007813492875192835,1.0736286757411475e-05,0.999251436178725,-0.011850419526260071,-0.0008095469850218733,0.8576327078028887
2024-03-06 14:17:28.115,-0.7376464570162639,1.5813706506510234,-9.79836229261339,-0.007809988004531512,-0.0001474395440988091,0.9998365957076273,-0.013048704358203017,-0.0008353508153850794,0.8636952894075431
2024-03-06 14:17:28.173,-0.6267261364608696,1.6097509352515473,-9.735200091735269,-0.007874113043079714,-0.00035740437242391324,0.9999547001497558,-0.015243396855183647,0.0019338271607495512,0.8654523729455171
2024-03-06 14:17:28.227,-0.6803379231041911,1.6272860271934537,-9.831175206797257,-0.00782478649642594,-0.0005386211314650434,0.9996072082582171,-0.01400835329386559,-0.0024359376664793864,0.8628451743552632
2024-03-06 14:17:28.280,-0.6775428481123548,1.6348886574811103,-9.90651882697599,-0.0078078761882407755,-0.0008065141949033703,0.9987991118185273,-0.017445423945447312,-0.0009718508036119804,0.8587025572097639
2024-03-06 14:17:28.335,-0.7508639013275421,1.6084512048112123,-9.817657991591322,-0.007786564539674678,-0.0008994191897391632,0.9975222958962614,-0.010502028055225264,-0.001195253198940911,0.8635793696055448
2024-03-06 14:17:28.391,-0.6563513140669865,1.68138283933464,-9.768113309355659,-0.007838293240838864,-0.0009586924284086596,0.9957779373950588,-0.009033623033564435,0.0018032932508840085,0.8644571896965081
2024-03-06 14:17:28.446,-0.6954515255354087,1.6540571960090502,-9.793500137079034,-0.007876944468358738,-0.0011034011476841175,0.9935698777513654,-0.012482749489639029,0.0016680476396981132,0.863922964031051
2024-03-06 14:17:28.501,-0.6892318873774946,1.6033748800194647,-9.875333864575227,-0.007831356423807199,-0.0013482944669837508,0.9909135604159008,-0.016753524894133336,-0.0011699134589293373,0.8594798459785996
2024-03-06 14:17:28.553,-0.7192221135840958,1.5555036563140467,-9.818296692582656,-0.007765655080217432,-0.0017154702392161922,0.9877812440772075,-0.02174980174204707,-0.0012741120585195828,0.8641373923263602
2024-03-06 14:17:28.607,-0.6543266931007045,1.6339707692782308,-9.809448383486021,-0.007684198770979256,-0.0019527153610930132,0.9841782575486873,-0.01671401982508317,-0.0024504873019680433,0.8663771608015419
2024-03-06 14:17:28.662,-0.6740845885329749,1.7213022566526988,-9.828053041146411,-0.007665266735494352,-0.0018044859140255247,0.9801297171152631,-0.001082479052627746,-0.002229985589566387,0.863262363629217
2024-03-06 14:17:28.714,-0.7032575188287222,1.7303516033590476,-9.798944834856144,-0.007683384384415356,-0.0019077174743400798,0.9756452634471133,-0.010696547119097047,0.00115770490140469,0.8592977131899048
2024-03-06 14:17:28.767,-0.7730483605231006,1.5945968275662155,-9.824000856816728,-0.0076324147818486125,-0.002172652756437852,0.9706903059935076,-0.017617122674252812,-0.00012497012685392853,0.8626321829510426
2024-03-06 14:17:28.822,-0.6647242106604998,1.5857677153552383,-9.851718505436885,-0.00753524778835564,-0.0025450923192241767,0.9652711397078056,-0.02224126951596794,-0.000839356843649289,0.8645306250177369
2024-03-06 14:17:28.879,-0.6819709971612125,1.664666589444507,-9.818255807523572,-0.007558988979694069,-0.0027249159492311733,0.9593985211222021,-0.013615237345750845,0.0021525722698722636,0.8648689722797545
2024-03-06 14:17:28.934,-0.6929595436403185,1.7445942256838964,-9.798064641932681,-0.0075032978383453505,-0.0026903044737457333,0.9531170961594565,-0.0061370251033184215,-0.0030015462095405896,0.859809774063913
2024-03-06 14:17:28.987,-0.7060609728129491,1.681911539493605,-9.812535438277472,-0.0074453025415933995,-0.0029340312733571613,0.9463759338421027,-0.016871476686296686,0.0001947324038614935,0.8620289515446364
2024-03-06 14:17:29.041,-0.7065257318594378,1.6369754369503378,-9.838153233988383,-0.007347103508268118,-0.0031742756918067038,0.9391857171459692,-0.017244226793468546,-0.001232777187403776,0.8631474236550107
2024-03-06 14:17:29.095,-0.6743759935319651,1.6829112210977148,-9.862022564780757,-0.007227841823161408,-0.003080640410053197,0.9315485441827018,-0.004898179574245284,-0.006195870999708298,0.864409899270083
2024-03-06 14:17:29.148,-0.672726682448703,1.6955977315311468,-9.787459206617978,-0.00726606905038029,-0.0030261316318672717,0.9235329906718279,-0.004165570301690706,0.0004069638366291872,0.8583837047190291
2024-03-06 14:17:29.204,-0.7872195756938207,1.5683400863918062,-9.74496426340828,-0.0071982020776131875,-0.0034587456112871204,0.9150599993326968,-0.023887504844706097,0.003680505586455434,0.8613445859319342
2024-03-06 14:17:29.274,-0.7027538727010159,1.5471213111624245,-9.885563418116668,-0.00700228165989186,-0.003926493061230664,0.9061411831564677,-0.02717396387458009,-0.0003652311042827338,0.8633833051185484
2024-03-06 14:17:29.349,-0.6410035465926109,1.6713996322440157,-9.898914112854172,-0.006923269785222945,-0.0041081199368190975,0.8967762984207507,-0.01484715715973206,-0.0005543486096963146,0.8656379174753324
2024-03-06 14:17:29.415,-0.6628441149438267,1.7881086061768803,-9.792522434686642,-0.006808810347301634,-0.0039323905995423715,0.8870385824967272,-0.0024779701741411463,-0.0077319586880332,0.8617665993174244
2024-03-06 14:17:29.473,-0.6865904718720224,1.767100007159542,-9.71900988773489,-0.006845773826519841,-0.003929198149149729,0.8769014091102875,-0.0059879333125204826,0.000899826235616578,0.8605950550489848
2024-03-06 14:17:29.528,-0.7718742200173808,1.631665373486528,-9.789013397656676,-0.006822941438691221,-0.0041956979408873385,0.8663060761347745,-0.016700215872114576,0.0039020056656880217,0.864647603503728
2024-03-06 14:17:29.583,-0.677013475654938,1.5888142343335543,-9.950613689160628,-0.0066455398196831935,-0.004527155340020852,0.8552927431716231,-0.02196608169295065,-0.00012235190722525532,0.8656591519832991
2024-03-06 14:17:29.639,-0.6498608735106842,1.6505386478477426,-9.886365100550819,-0.0064239430966477416,-0.00458635414929762,0.8439092502371516,-0.013408734077296605,-0.006941560462719454,0.863533330699659
2024-03-06 14:17:29.695,-0.662311676398017,1.715759898066749,-9.725236989569769,-0.006381595718647165,-0.004590224626714425,0.8321838058511133,-0.0077827792506112315,-0.0018063585814452857,0.8598151266834918
2024-03-06 14:17:29.747,-0.7656197009203213,1.6801696986065668,-9.69479186978714,-0.006274631623012644,-0.004799168844580742,0.8200344934832688,-0.016121519263443525,0.0005561212185772321,0.8624671474985567
2024-03-06 14:17:29.800,-0.6857109366950972,1.6777835687930118,-9.911854560017044,-0.00609067849890914,-0.005002346074008622,0.8074811398299339,-0.017658841871344463,-0.001989274738895409,0.8640172137763175
2024-03-06 14:17:29.853,-0.6646668528341599,1.6976531254311005,-9.953116432196518,-0.005992230417345841,-0.004866712111615022,0.7946137706280283,-0.00456818706823305,-0.006791547165503161,0.8600362183968153
2024-03-06 14:17:29.912,-0.6989109128881651,1.6919890546319618,-9.753633479182321,-0.006067259310845421,-0.004985939771876979,0.7813450192917057,-0.008730588496623901,0.004967113268652795,0.8620740608554458
2024-03-06 14:17:29.964,-0.7731257517882848,1.5983828282751849,-9.681833634363938,-0.005881899832132905,-0.005237735687095548,0.7677115024889525,-0.019273509560205133,5.5421344390558765e-05,0.8621434616875424
2024-03-06 14:17:30.018,-0.646214574091655,1.6064746590049868,-9.895548220097126,-0.005613900628404293,-0.005454152732462617,0.7536946410697836,-0.020251295560585185,-0.003265742299177616,0.8637773331530667
2024-03-06 14:17:30.092,-0.6469036130657566,1.6803917491808729,-9.931872406485033,-0.005417333910714302,-0.00549040361720449,0.7394375794104238,-0.012848230837685378,-0.005539477061743204,0.8572385601944628
2024-03-06 14:17:30.152,-0.7433478527485947,1.7070903679713525,-9.771526699561754,-0.005385032179870024,-0.005580481407323401,0.7247338043762789,-0.010211177403399907,0.0009652809023046669,0.8634269651187696
2024-03-06 14:17:30.207,-0.6829101136970186,1.7442310913877694,-9.71460314891789,-0.005355081236427852,-0.005752970228037048,0.7096500657782949,-0.012613360171456634,0.003396780084827798,0.8657880409068907
2024-03-06 14:17:30.264,-0.6825371554033878,1.6975916232195003,-9.872729700515778,0.005290132366137332,0.005925484393889061,-0.6942552191643246,-0.013578232173812672,0.0025306724918189452,0.8645955095497615
2024-03-06 14:17:30.325,-0.6747623192142898,1.6668947902399727,-9.90726164982622,0.00512244764787481,0.005981870300956651,-0.678654109312832,-0.013135726543690144,-0.003506243444698782,0.858204256158434
2024-03-06 14:17:30.382,-0.7213904216097095,1.614071538376018,-9.770596308353905,0.004921104912980177,0.006095240083347937,-0.6626627652596294,-0.015728057125352492,-0.0026585169957983176,0.8623308832818737
2024-03-06 14:17:30.434,-0.6496655009612995,1.6898926126914813,-9.752201477659609,0.004788905622416112,0.006198002336439267,-0.6463216271411216,-0.013435601557126618,-0.0009492242864010999,0.8645274891611805
2024-03-06 14:17:30.488,-0.676778977372937,1.7082069421945567,-9.859449320629318,0.004723226890199761,0.006328733957700824,-0.6296694596870052,-0.012197614413625837,0.0017977425092797169,0.8649883157953191
2024-03-06 14:17:30.546,-0.6949739782664246,1.70713320880775,-9.897145065707715,0.004515894212177277,0.006464319954708245,-0.6128648540737693,-0.01659931865932695,-0.0015637163421501966,0.8577784873351855
2024-03-06 14:17:30.600,-0.7329534623952334,1.657235776522174,-9.775591177348838,0.004364132793126095,0.0066162886625956326,-0.5956708072659554,-0.015337676634873062,0.000485691052660019,0.8631332752636989
2024-03-06 14:17:30.656,-0.6681735790200973,1.7032143782228855,-9.750488216732723,0.0043868835641415966,0.006684970621335443,-0.5781660521630688,-0.0078045720723263455,0.0022776642686732225,0.8648189865737597
2024-03-06 14:17:30.714,-0.6684374285137198,1.719810336166688,-9.844776054766422,0.0043104558310184185,0.006682789972961544,-0.5604254862534275,-0.009298057431285535,-0.0022122504974040435,0.8631640615323639
2024-03-06 14:17:30.769,-0.6628235370814796,1.647062079049492,-9.908142867204466,0.004067849577522519,0.006763017153632919,-0.542511252708878,-0.016600914194040698,-0.003215557396471818,0.8589498121198945
2024-03-06 14:17:30.855,-0.7311243114761636,1.5695104212080766,-9.799324162522765,0.0037020892271845103,0.006932804429715534,-0.5242446116921102,-0.022733524759648346,-0.0028678944378726506,0.8636956031632854
2024-03-06 14:17:30.913,-0.6621201062639007,1.659567063080221,-9.75584862982083,0.0036226889253679387,0.007061711696780697,-0.5057110989305379,-0.012244754113264271,0.002118177738113054,0.8647988209377362
2024-03-06 14:17:30.984,-0.6877965883909483,1.7568560297604114,-9.80540607117516,0.003563761803854212,0.007171230577272445,-0.48694453910486046,-0.011151158894604284,0.002035160818057514,0.8646537004886033
2024-03-06 14:17:31.041,-0.6834859518727441,1.7585059374721694,-9.882878228997075,0.003576014233679079,0.007183685984693097,-0.46807370149591737,-0.0066972667369664006,0.0002779096849346431,0.8591165445782211
2024-03-06 14:17:31.094,-0.7155834473718369,1.649468814374032,-9.833984913739162,0.0033807905802384717,0.00731321473439957,-0.4489112500323918,-0.01626005763907292,0.0004727317507432605,0.8624251020856255
2024-03-06 14:17:31.147,-0.6633322210819989,1.6119229190907731,-9.805177431493952,0.0030604453602980424,0.007384738365730736,-0.42950429929520273,-0.019617426938261462,-0.0037719639941709688,0.8639936165782425
2024-03-06 14:17:31.203,-0.6359718234189199,1.6526770342266852,-9.815503283785034,0.0027944782292861617,0.007316213469433192,-0.4098732081742174,-0.015178125837838846,-0.007653362513641756,0.8650791016583206
2024-03-06 14:17:31.257,-0.6585516130215188,1.7304569010126387,-9.79216583128976,0.002742629780560905,0.007255104185909958,-0.3901941581882631,-0.007534494273652452,-0.0035566230650273707,0.8588840252296669
2024-03-06 14:17:31.335,-0.7611072271646991,1.6971297338105584,-9.803312178730108,0.0026148111322505455,0.007476793800659314,-0.37026918917687884,-0.014973591554304,0.0056570792078706866,0.8616442050459682
2024-03-06 14:17:31.393,-0.7447789324075211,1.652097053120891,-9.86825003914465,-0.009302858417157247,0.007208407044454656,-0.35100639447116705,-0.44146391259244466,-0.1957842327929294,0.8198656232632953
2024-03-06 14:17:31.489,-0.7236562863979763,1.8823523577302972,-9.712858316157224,-0.006319444415609022,0.0031252148449218077,-0.33054216592747726,0.16853396763053738,-0.11716216373384652,0.8711618606160456
2024-03-06 14:17:31.546,-2.2167406621819605,5.427691734570751,-9.743470235805043,0.004868779536638714,0.002254436818900378,-0.309655560192355,0.43055524124805333,0.11841975492376461,0.8819734156998081
2024-03-06 14:17:31.598,-1.9135032337264486,2.9757676862514093,-9.712234888855388,0.00132636722618238,0.004362839166076817,-0.2908440458282028,-0.16444142241777643,0.036208329559872944,0.7883417497826007
2024-03-06 14:17:31.649,-0.793537307761933,0.3908478542037862,-9.773357772788735,-0.008889583501658874,0.0049972728840101165,-0.2742751403515664,-0.39982096697676484,-0.10142786779125446,0.6876179082663876
2024-03-06 14:17:31.735,-1.0191234334136405,2.536612174597363,-10.191461332361655,-0.0035704821792941306,0.0050659273450786,-0.2559312613895633,0.20092482715696247,0.05729802723342915,0.7621432719176825
2024-03-06 14:17:31.793,-1.609295064514458,4.374439649426916,-9.763872252816814,0.004662942279651363,0.0049686060829999944,-0.2393248450241976,0.3152293550600611,0.0827188214507692,0.6865909596513644
2024-03-06 14:17:31.849,-1.3259859882525304,1.844612250367363,-9.542866715522294,6.604940050365317e-05,0.005621669181578879,-0.22370017764300199,-0.188292285514602,-0.019491321715389278,0.6413872624570233
2024-03-06 14:17:31.902,-0.595195867314479,-0.05556452224318345,-9.695910760675138,-0.005072083575073107,0.00480246101977278,-0.2084816052322302,-0.1951694272268646,-0.0816735840896647,0.6218496301829989
2024-03-06 14:17:31.956,-0.9631879082903422,1.5615937897085368,-9.974786165436642,-0.0023775139895807124,0.004290251410474575,-0.1927930571577776,0.10733217521741599,0.00035062187091528495,0.6410804496237098
2024-03-06 14:17:32.013,-1.951569319209051,2.486214411383061,-9.819040074226406,0.0005131997322804189,0.003934753246036865,-0.1772925162128467,0.1137028416757347,0.008159420649970653,0.6313914705735003
2024-03-06 14:17:32.064,-1.7153239576318098,1.3224737599877066,-9.76105667854297,-0.001394357605819857,0.004123207399205181,-0.1628703262894829,-0.07865122986567247,-0.007355825269398292,0.5850893825251459
2024-03-06 14:17:32.116,-1.555249684660012,0.5887701805950801,-9.801013767857382,-0.003071371511529897,0.0037081190935563503,-0.14984496160337352,-0.06513380634789319,-0.02923424481051016,0.5271413477015283
2024-03-06 14:17:32.189,-1.4417798504878092,1.2164503251115986,-9.865607970258216,-0.002354275516575086,0.00348238752151792,-0.13790423154602832,0.028229795119859062,-0.006013727706494187,0.4827480636692395
2024-03-06 14:17:32.247,-1.9387074902196582,1.418864610333198,-9.789577965374594,-0.002120144783071788,0.0034857003092850316,-0.12644406365747246,0.007802970378841171,0.00022082642480726386,0.4624985816442687
2024-03-06 14:17:32.318,-1.8439295771737505,1.165708443952137,-9.766541795717895,-0.0022802687497598846,0.003423204542860259,-0.11452691658617523,-0.0075217547226795415,-0.004592528403497461,0.48015387934779724
2024-03-06 14:17:32.375,-1.5820400620027975,0.9735764531396338,-9.886335763891111,-0.0027901977402889516,0.003256574750704299,-0.10313908793574172,-0.020827278597784556,-0.010405841108144511,0.4581400468944715
2024-03-06 14:17:32.430,-1.6012445437596443,0.9893971491053191,-9.858732202280924,-0.00370376603267355,0.003010228651381608,-0.09262873641627999,-0.0364260826936821,-0.015262993144032629,0.4222715785899861
2024-03-06 14:17:32.489,-1.8826874708597912,1.1776545951744688,-9.761467764307879,-0.0024136604948927142,0.003044283511475152,-0.08217106719325866,0.05008313890056477,0.005002344695704545,0.4200796280138464
2024-03-06 14:17:32.546,-1.5469427780885419,0.9865598633749848,-9.782491066579666,-0.0016034096452070981,0.002951737022581347,-0.07217077898591978,0.03148088841206822,-0.0017703876471318308,0.4013042122937476
2024-03-06 14:17:32.597,-1.423160119954342,0.40066563949552586,-9.853421428683685,-0.0022351893264497004,0.0028067325073916527,-0.06257694158824137,-0.02579679134109751,-0.00854896339107248,0.3845351658741035
2024-03-06 14:17:32.651,-1.4023664112417613,0.2268265417607933,-9.84341706893009,-0.002517733882172205,0.0027192374082982145,-0.05340989271858419,-0.01199501288133415,-0.005189844451877382,0.3672569213015694
2024-03-06 14:17:32.707,-1.3848492683588407,0.3617060024319159,-9.791029990331708,-0.0023077764918639112,0.00273833998090874,-0.044760959884814135,0.007444725567275223,0.0003587318857367706,0.34639922923685845
2024-03-06 14:17:32.759,-1.4607762573290717,0.2909708280679656,-9.78891812336182,-0.0024093952821960933,0.0027180994368981,-0.03678392563488076,-0.004853905891447809,-0.0018015579890968058,0.3193321823345513
2024-03-06 14:17:32.812,-1.3972895603983033,0.10297653009015784,-9.825446269383878,-0.002391383257254941,0.0027098746503689685,-0.029512445183071903,-2.7755123308074486e-05,-0.0010295168494820976,0.29101913611222796
2024-03-06 14:17:32.869,-1.3592196797763894,0.09684355585927018,-9.841215236203766,-0.0023745558026269627,0.0027010686341891643,-0.023062373345646585,6.514618813191262e-06,-0.0009675744857320173,0.25809188485744133
2024-03-06 14:17:32.926,-1.2894736921757848,0.0016855424400766712,-9.813209250128201,-0.002427350804254323,0.002684338333571983,-0.017460411950760243,-0.0026831535411221416,-0.0012771300748469865,0.22411585566663633
2024-03-06 14:17:32.979,-1.2432732960144635,-0.07571117825687854,-9.794452786895361,-0.002399701551174316,0.0026818620146058124,-0.012759993390996717,0.0006122766355899781,-0.0005408715310285857,0.1880399399427882
2024-03-06 14:17:33.033,-1.1864250078725858,-0.11649357358350208,-9.811876620719483,-0.002731993903753988,0.0025624545385034996,-0.009132406108409834,-0.013595665745860335,-0.005347229150395318,0.14506213354549252
2024-03-06 14:17:33.091,-1.1013600568572406,-0.15862020783626418,-9.822878147506355,-0.004748352662256497,0.001776075519060838,-0.0073290712291010345,-0.08048884853266697,-0.032532737318779606,0.07177530773438275
2024-03-06 14:17:33.146,-1.0001806940331912,0.3678574168489051,-9.776192252909947,-0.0027990045397017047,0.0019738449893301185,-0.006178768844764886,0.07782439259936098,0.008352270142426284,0.04617449303819049
2024-03-06 14:17:33.198,-1.2522574152190908,0.2891742952653309,-9.83478436099924,-0.000779375425312609,0.0019911182824369714,-0.0058678080610960045,0.08075462561855552,0.0011802587593917832,0.012598502936678503
2024-03-06 14:17:33.253,-0.8534845781720117,-0.7534590890385084,-9.841603597698935,-5.424022719346829e-06,0.001985384167732632,-0.00586742959173365,0.030958781166321836,-4.768189745544822e-05,7.671227727266564e-05
2024-03-06 14:17:33.311,-0.8185952571235987,-1.70868319725353,-9.784102720218488,0.0004414096811015331,0.00199044697253335,-0.005868008341766127,0.01787186347583797,0.00030739331890003343,1.2173641979600307e-05
2024-03-06 14:17:33.363,-0.6944575948479237,-1.8681687230462163,-9.867380742694793,0.0002613589477273637,0.001959606538817061,-0.005861646258971442,-0.007195153251601441,-0.001275798921232862,0.00024049609516751795
2024-03-06 14:17:33.415,-0.6338436786774289,-1.8281061148891113,-9.825693256118935,0.0002640448819505571,0.001951508685113117,-0.00586448538728697,0.0001095556267179342,-0.00032330806327367614,-0.00011326723675890243
2024-03-06 14:17:33.469,-0.6080895257065391,-1.4756608053495166,-9.762266093980921,0.00030401722375068954,0.0019555625540751296,-0.00586661478623242,0.001598079032040959,0.0001715050529959553,-8.211119228234434e-05
2024-03-06 14:17:33.523,-0.5624877429223853,-1.4232797454229864,-9.790381603586058,0.00027100744928712424,0.0019482236696603153,-0.00586591773894059,-0.0013186981673687938,-0.0003012905185029264,2.5385111551374598e-05
2024-03-06 14:17:33.581,-0.5165373719358761,-1.3615517463170559,-9.832114352436893,0.00028190764752577293,0.0019479266775046197,-0.005866958441929124,0.0004361504539315723,-9.332932827368609e-06,-4.077656445828136e-05
2024-03-06 14:17:33.631,-0.48574579726156253,-1.2412728734268654,-9.82454661181953,0.0002804175317764877,0.0019465164257992426,-0.005867178245083663,-5.925544050128565e-05,-5.676129750422658e-05,-8.891804804033819e-06
2024-03-06 14:17:33.683,-0.44897628736422335,-1.1767933866787117,-9.803820494567187,0.0002787262835245554,0.0019455420320158572,-0.005867278606502551,-6.741216701348479e-05,-3.9373176673871385e-05,-4.134780673661401e-06
2024-03-06 14:17:33.755,-0.41774394684010996,-1.0979693327132276,-9.804778732318697,0.0002787262835245554,0.0019455420320158572,-0.005867278606502551,-0.0,0.0,-0.0
2024-03-06 14:17:33.812,-0.38825263811658645,-1.0258566915814846,-9.810070227539557,0.0002787262835245554,0.0019455420320158572,-0.005867278606502551,-0.0,0.0,-0.0
2024-03-06 14:17:33.864,-0.3602464861491967,-0.960942294673941,-9.8113683048824,0.0002787262835245554,0.0019455420320158572,-0.005867278606502551,-0.0,0.0,-0.0
2024-03-06 14:17:33.916,-0.3342984987662887,-0.8987080635650909,-9.810484200404309,0.0002787262835245554,0.0019455420320158572,-0.005867278606502551,-0.0,0.0,-0.0
2024-03-06 14:17:33.973,-0.31007007037887946,-0.8406345275022454,-9.809789154399889,0.0002787262835245554,0.0019455420320158572,-0.005867278606502551,-0.0,0.0,-0.0
2024-03-06 14:17:34.027,-0.2873292580211608,-0.7867650861153199,-9.809786919225814,0.0002787262835245554,0.0019455420320158572,-0.005867278606502551,-0.0,0.0,-0.0
2024-03-06 14:17:34.079,-0.2661042662138887,-0.7361778406937887,-9.809961076538995,0.0002787262835245554,0.0019455420320158572,-0.005867278606502551,-0.0,0.0,-0.0
2024-03-06 14:17:34.132,-0.24627115048018405,-0.6888216441684367,-9.809996839324162,0.0002787262835245554,0.0019455420320158572,-0.005867278606502551,-0.0,0.0,-0.0
2024-03-06 14:17:34.187,-0.2277156346351864,-0.6446429629560643,-9.809879865214347,0.00027809295127779023,0.001944639816870097,-0.0058673626658561,-2.5114540457200708e-05,-3.6237599374465735e-05,-3.401223166605028e-06
2024-03-06 14:17:34.246,-0.21032694805024718,-0.6033657239548378,-9.8098799583466,0.00027750063046902353,0.0019437216520234973,-0.0058674409057070465,-2.347082412651574e-05,-3.6865889667260726e-05,-3.165066546648583e-06
2024-03-06 14:17:34.297,-0.19415721277285566,-0.5645900405532754,-9.809852111802941,0.00010859221812166746,0.001903468730346949,-0.005865370243250164,-0.006746919407517193,-0.0016497267806490374,6.988969754944149e-05
2024-03-06 14:17:34.351,-0.16911822892140627,-0.5703442750148866,-9.808611497060223,0.00011947751570440157,0.0018980394486235155,-0.0058687192173754715,0.0004369317305614297,-0.00021462848258337828,-0.00013310417672218958
2024-03-06 14:17:34.408,-0.17756262416421079,-0.43407682726935654,-9.812011010560616,5.2072108902080644e-05,0.0018839075166051005,-0.005867959125275855,-0.0026929050292344736,-0.0005810907401120005,2.5322675718629833e-05
2024-03-06 14:17:34.462,-0.15120905746085392,-0.47727925764281104,-9.809876978114502,0.00017709660899092742,0.001901693652540017,-0.005871814389117753,0.004997003652782913,0.0007407566634075786,-0.00014493240417764905
2024-03-06 14:17:34.515,-0.1499583989867211,-0.3727327804284899,-9.811487048505024,0.00012601167642755731,0.0018890068021805433,-0.005869803335239361,-0.0020405308467504124,-0.0005194557699229803,7.662831825501575e-05
