Timestamp,Linear_Acceleration_X,Linear_Acceleration_Y,Linear_Acceleration_Z,Orientation_X,Orientation_Y,Orientation_Z,Angular_Velocity_X,Angular_Velocity_Y,Angular_Velocity_Z
2024-04-18 22:02:38.030,2.061022952110659e-05,-0.006807066979042915,-9.810550138039462,0.00035373496032101924,6.190039480677404e-06,1.0401180589595219e-08,-4.351139015231898e-05,7.176722040488297e-06,-3.147428560170456e-08
2024-04-18 22:02:38.076,1.5242661075431913e-05,-0.006810937106188813,-9.8103995431863,0.00035373496032101924,6.190039480677404e-06,1.0401180589595219e-08,-0.0,0.0,-0.0
2024-04-18 22:02:38.123,2.7111079381621483e-05,-0.006660811870593317,-9.81049733205199,0.00035373496032101924,6.190039480677404e-06,1.0401180589595219e-08,-0.0,0.0,-0.0
2024-04-18 22:02:38.169,2.068558239701919e-05,-0.006802985849136228,-9.81048019571743,0.00035265090091738316,6.380208014811569e-06,9.464145201936077e-09,-4.33623785135094e-05,7.606728031173295e-06,-4.043235234933963e-08
2024-04-18 22:02:38.215,1.4442625431284641e-05,-0.006800176647509556,-9.810470416830862,0.00035265090091738316,6.380208014811569e-06,9.464145201936077e-09,-0.0,0.0,-0.0
2024-04-18 22:02:38.262,2.750647348028854e-05,-0.006676632484704483,-9.810496121332699,0.0003515631162224199,6.5798975949230565e-06,8.258695174297058e-09,-4.3511390083171315e-05,7.987566073688314e-06,-5.13037496166502e-08
2024-04-18 22:02:38.299,1.4288878379059148e-05,-0.006847080242021622,-9.810482244626996,0.0003515631162224199,6.5798975949230565e-06,8.258695174297058e-09,-0.0,0.0,-0.0
2024-04-18 22:02:38.340,2.85065152599152e-05,-0.006664474678431793,-9.810470416830862,0.0003515631162224199,6.5798975949230565e-06,8.258695174297058e-09,-0.0,0.0,-0.0
2024-04-18 22:02:38.379,2.048338228331167e-05,-0.006775291759520008,-9.81049584193594,0.00035046415565600917,6.7879990921875565e-06,7.198195872225742e-09,-4.395842498663282e-05,8.324044774713578e-06,-4.562649614427506e-08
2024-04-18 22:02:38.407,1.4386018181754333e-05,-0.006803782907517636,-9.81046948550833,0.00035046415565600917,6.7879990921875565e-06,7.198195872225742e-09,-0.0,0.0,-0.0
2024-04-18 22:02:38.436,2.8177565430398613e-05,-0.006685550398154934,-9.810496028200447,0.0003521666132095637,7.022053925020988e-06,6.700901189572778e-09,6.809830657344576e-05,9.362185400779315e-06,-2.272658659723029e-08
2024-04-18 22:02:38.467,7.662584791323709e-06,-0.007551297727005501,-9.8111628551322,0.0003731772488473598,8.149541321429704e-06,7.951371150219396e-09,0.0008404254808054717,4.509950801591984e-05,3.909020392837879e-08
2024-04-18 22:02:38.496,-1.0527896809438622e-05,-0.009275654033979884,-9.814646373924832,0.0003950633506578252,9.23045174417577e-06,8.883688985598536e-09,0.0008754441371432473,4.3236424206057546e-05,2.7346057178982728e-08
2024-04-18 22:02:38.531,2.6361102625462785e-05,-0.009002549022489693,-9.811965748285639,0.000411350318777931,1.0247255941852673e-05,8.720804095088845e-09,0.0006514787783368124,4.067215852291423e-05,-1.7232458980732653e-08
2024-04-18 22:02:38.577,3.1073001361556706e-05,-0.008168925499727296,-9.809100534520924,0.0004272312299663658,1.1205745138727349e-05,8.352742867605158e-09,0.000635236504027763,3.833955538125745e-05,-2.459287566354733e-08
2024-04-18 22:02:38.622,2.6627033001652607e-05,-0.006862757246926199,-9.808908216418402,0.00044430423358752,1.213426464149741e-05,6.842867792744429e-09,0.0006829202108894116,3.714074737483222e-05,-6.924417125067635e-08
2024-04-18 22:02:38.667,2.2983904886758457e-05,-0.006480098783489048,-9.809635113653362,0.0004615225231206914,1.3044432340321822e-05,5.701736023251005e-09,0.0006887316529807614,3.640668222828208e-05,-5.409052820186374e-08
2024-04-18 22:02:38.711,2.283959277580162e-05,-0.0065854571003738675,-9.809914417280224,0.0004783608897200473,1.3921383296259515e-05,3.007528639601006e-09,0.0006735347402241912,3.507798311159438e-05,-1.1576236543484084e-07
2024-04-18 22:02:38.756,2.3480146932846816e-05,-0.006650963726006076,-9.809725265674304,0.00048348683128046844,1.4348492164090602e-05,1.0969071607577205e-09,0.00020503768737436178,1.708431653844984e-05,-8.183050255708014e-08
2024-04-18 22:02:38.790,4.1087436033705895e-05,-0.008034906505040493,-9.806629456451066,0.00048348683128046844,1.4348492164090602e-05,1.0969071607577205e-09,-0.0,0.0,-0.0
2024-04-18 22:02:38.819,4.1048289571716964e-05,-0.007500939007760245,-9.806648176033928,0.0004818104509306456,1.459183022683486e-05,-2.038977170476412e-10,-6.705522095687389e-05,9.73349592214759e-06,-5.768404318576741e-08
2024-04-18 22:02:38.848,1.699847031219407e-05,-0.006491649865875003,-9.810266270932201,0.0004818104509306456,1.459183022683486e-05,-2.038977170476412e-10,-0.0,0.0,-0.0
2024-04-18 22:02:38.877,3.181363359300558e-05,-0.00614581288486176,-9.811355918292746,0.0004818104509306456,1.459183022683486e-05,-2.038977170476412e-10,-0.0,0.0,-0.0
2024-04-18 22:02:38.904,2.2329927423440374e-05,-0.0062922953669760015,-9.81069877711531,0.0004818104509306456,1.459183022683486e-05,-2.038977170476412e-10,-0.0,0.0,-0.0
2024-04-18 22:02:38.933,2.181193024735535e-05,-0.006332527772692692,-9.810308459842828,0.0004818104509306456,1.459183022683486e-05,-2.038977170476412e-10,-0.0,0.0,-0.0
2024-04-18 22:02:38.962,2.1322172169876358e-05,-0.006365066899516702,-9.810317866200384,0.0004818104509306456,1.459183022683486e-05,-2.038977170476412e-10,-0.0,0.0,-0.0
2024-04-18 22:02:38.991,2.0867604252621492e-05,-0.006395117785379051,-9.810406155576265,0.0004807301169252639,1.4748706256920173e-05,-1.1301612859877182e-09,-4.321336462513909e-05,6.275022356089779e-06,-4.06977017758693e-08
2024-04-18 22:02:39.021,1.5351599395285073e-05,-0.00644868724814274,-9.810432884532887,0.004370298439524882,1.5336738927508517e-05,2.692094775254538e-07,0.15558328845456712,2.3583007489777493e-05,1.3005291063237733e-05
2024-04-18 22:02:39.050,0.00021275532146916348,0.23756622785489648,-9.8457640948389,0.0017059707762079486,1.687628696511432e-05,-3.271747487895429e-07,-0.10657362946953831,6.156921498321555e-05,-2.5594893360448998e-05
2024-04-18 22:02:39.079,7.719967800273846e-05,-0.9842627174274311,-9.767611885305302,-0.0015320965350332587,1.9249218573981e-05,-1.3112300963579328e-06,-0.12952274877233932,9.494197126434976e-05,-4.140273010586456e-05
2024-04-18 22:02:39.109,0.0002988221808839721,-0.23180911475174143,-9.75866094446582,0.0018414484177045188,2.0254719910782683e-05,1.0571586536408783e-06,0.13494186171239905,4.058053918440933e-05,9.725820995722374e-05
2024-04-18 22:02:39.138,0.00012997415015309911,0.3988286367271696,-9.844981597648877,0.0059155860610464565,1.982820738152601e-05,4.7476797926972104e-06,0.16296684122160812,-1.6332964713563427e-05,0.00015102129664878663
2024-04-18 22:02:39.167,8.936830584078015e-05,-1.078772757011549,-9.895855090870885,0.003232039582136411,1.8587683779091525e-05,8.463983434780705e-06,-0.10734301715223388,-4.8634629367635856e-05,0.00014668236765040898
2024-04-18 22:02:39.205,0.0010984236230441862,-1.962540915618104,-9.767817241923252,-0.0015007258448509126,1.9920183549792084e-05,8.866021417548471e-06,-0.1893108645162894,5.4891715155846516e-05,1.2648865333766448e-05
2024-04-18 22:02:39.250,0.000432918465563731,-0.46117553567052605,-9.663991171062412,-0.0007000267874825539,2.1224193215589906e-05,9.085233183595409e-06,0.03202798280673286,5.18700837441601e-05,9.44290031782282e-06
2024-04-18 22:02:39.296,0.0005194156083225964,1.0784415801749372,-9.788113553827824,0.0026570151574747103,2.316525632746642e-05,8.402924300991267e-06,0.13428180643282894,7.636212108871508e-05,-2.464327219771343e-05
2024-04-18 22:02:39.342,0.00018599954576824048,0.5488122057966678,-9.960051897948006,0.0032126945405798395,2.4018889050136505e-05,8.614462204941536e-06,0.022227271415245674,3.3987341308457386e-05,8.867323283590605e-06
2024-04-18 22:02:39.387,0.0008252825188269033,-0.6449982683221701,-9.89064313059412,0.0018232837436078222,2.3947404923579408e-05,1.089695258660226e-05,-0.05557661472693408,-2.2156394287925466e-06,8.996924906776975e-05
2024-04-18 22:02:39.432,0.00014683147910673512,-0.7236729876302905,-9.694857341761027,0.0022401548785134207,2.2948772171520946e-05,1.371679528112245e-05,0.016674876904633755,-3.987326152159052e-05,0.0001132826722326321
2024-04-18 22:02:39.479,0.0007462916514902324,-0.34169444530139054,-9.698666730307039,0.001920834303064177,2.3639957012448965e-05,1.5484983175781825e-05,-0.012772852000409476,2.795788456645035e-05,7.038084989714023e-05
2024-04-18 22:02:39.527,0.00021964280088411614,-0.2280999390565819,-9.85162816715144,0.0005913935622428411,2.5462182837211955e-05,1.5065228633493538e-05,-0.05317767391844935,7.370263817397863e-05,-1.8090342317866884e-05
2024-04-18 22:02:39.577,0.0006839767438850671,0.09454510278599314,-9.905916726960099,-0.0002894774129196638,2.732298573172555e-05,1.4413090205049343e-05,-0.03523483869478563,7.497113945797212e-05,-2.6960757828048266e-05
2024-04-18 22:02:39.625,0.0005464772097737061,0.6894524522013263,-9.79954646921077,0.001729253772998517,2.8028796501567904e-05,1.4626176261106409e-05,0.08074928219998037,2.7089327904858056e-05,1.068409863337755e-05
2024-04-18 22:02:39.664,0.000694349376988883,0.6628581822796098,-9.760651925771265,0.0036360176775569017,2.8268874317077736e-05,1.635640470879177e-05,0.07627084032956075,8.7489670701126e-06,7.131664008954973e-05
2024-04-18 22:02:39.694,0.00042101160876253723,-0.19546153143184436,-9.821915905067966,0.0036673620708515993,2.788558986632093e-05,1.898322280568481e-05,0.0012537809141868546,-1.4966311890493425e-05,0.00010516376131767985
2024-04-18 22:02:39.724,0.0004066462258954812,-0.8986028735956675,-9.848154147848616,0.0011679905141324769,2.755115601977287e-05,2.1833163439852407e-05,-0.09997518381487878,-1.134611814773613e-05,0.00011122546111062747
2024-04-18 22:02:39.754,0.0007526945279926449,-0.4888601659965995,-9.76762194358863,-0.00011178852383070781,2.8713151137284008e-05,2.2057249883126397e-05,-0.051191171358142905,4.759752739604449e-05,7.559118258460006e-06
2024-04-18 22:02:39.784,0.0007357524046493077,0.5436627314409248,-9.749005551264357,0.0005879812674485877,2.947390751974436e-05,2.234665867771026e-05,0.027990793326803858,2.9820410863904333e-05,1.2362739918419437e-05
2024-04-18 22:02:39.813,0.0007489133437400137,0.9827493921665298,-9.83439907286842,0.001167774377855171,3.032271803499773e-05,2.1461540731836237e-05,0.023191735493237126,3.3393791913226106e-05,-3.476003670605832e-05
2024-04-18 22:02:39.843,0.000502673535790111,0.7060369112222619,-9.884329043234903,0.0020659008592426933,3.0514453439265393e-05,2.1979645414781733e-05,0.03592510692844531,6.943947911598722e-06,2.1799581318192746e-05
2024-04-18 22:02:39.872,0.0007577099249186693,0.28791077144355576,-9.831585081842878,0.003214814016038174,3.0140653096174315e-05,2.61104707596207e-05,0.04595668366183914,-1.542553351987064e-05,0.00016668638853592477
2024-04-18 22:02:39.901,-0.0002864509531631351,-0.1963638956522954,-9.762545211343275,0.002549216374937484,2.8694936889794505e-05,2.9627450983937968e-05,-0.02662402222865942,-5.677645322702774e-05,0.00014002216550296827
2024-04-18 22:02:39.930,0.001277408968725098,-0.44758072674589505,-9.762171192215074,0.00030133875421132003,2.984999300018222e-05,3.0248084316777873e-05,-0.08991521437649926,4.8875802742170264e-05,2.2233491069115387e-05
2024-04-18 22:02:39.959,0.0006880034234834141,0.1266349905441659,-9.805021248705607,-0.00033844636955510034,3.037082936989722e-05,3.0410366925624286e-05,-0.025591404934866342,2.1605850357202128e-05,5.734961529011024e-06
2024-04-18 22:02:39.988,0.0009036119220670762,0.972784980328722,-9.84104238274213,0.0006592385603923889,3.1719701568290515e-05,2.9473848056735134e-05,0.03990740215569329,5.2717986426345056e-05,-3.628289031129984e-05
2024-04-18 22:02:40.017,0.00040944355861685796,1.0927585540519222,-9.839510077782894,0.002337254745306623,3.19555933195869e-05,2.9615801621946262e-05,0.06712073063976923,7.477381962725121e-06,7.791395713048994e-06
2024-04-18 22:02:40.047,0.0007125085803999827,0.49311453171647984,-9.823358896196538,0.0023197346601562946,3.1924571671213204e-05,3.0139648211141576e-05,-0.0007008060095620399,-1.1715520711318553e-06,2.093424311315316e-05
2024-04-18 22:02:40.078,0.0006884404640885671,-0.07992994417303508,-9.788631462286967,0.0024235286845713617,3.1787827066449025e-05,3.450510994982261e-05,0.00415176694643331,-5.17137958454194e-06,0.00017476406582658772
2024-04-18 22:02:40.116,-0.00040006009190370767,-0.17849537278221544,-9.78907020833103,0.002160832261710834,3.1010050969250714e-05,3.701757263510017e-05,-0.010507888723107294,-3.0531913662094864e-05,0.000100230740541577
2024-04-18 22:02:40.160,0.0014586812358828238,-0.09831221074431878,-9.803579654560831,0.00031838195679669695,3.241504819008059e-05,3.644533235083716e-05,-0.07369807632870722,5.8922099155278277e-05,-2.5191239006056276e-05
2024-04-18 22:02:40.192,0.0007914520460119169,0.32449420346312285,-9.804648347164443,-0.0005626902092752522,3.3909924895106584e-05,3.577071107269935e-05,-0.035242884906693625,6.109582697111234e-05,-2.8092311410076045e-05
2024-04-18 22:02:40.222,0.000624390257727867,1.054907307214781,-9.812861680559864,0.0019543544551472243,3.495745672858302e-05,3.5736482639623225e-05,0.10068183894945008,3.830804526414255e-05,1.9746414620514377e-06
2024-04-18 22:02:40.251,0.0007926278407065216,0.9552654531146045,-9.848633127025991,0.0034603924652115642,3.500590648004314e-05,3.73301493673009e-05,0.06024174464876565,1.46312071946869e-08,6.585453135619385e-05
2024-04-18 22:02:40.281,0.0005073806065661803,-0.0011745694234007592,-9.835088624069915,0.0032049717064228838,3.5007536876814414e-05,4.1025692712079796e-05,-0.010216892260016578,9.192757225993158e-07,0.00014746194223489573
2024-04-18 22:02:40.309,-8.057724202620566e-05,-0.5859609647802922,-9.784661141207705,0.0016311407725019885,3.410052291786971e-05,4.5528789952023745e-05,-0.06295343543225693,-3.34058561610024e-05,0.0001779768048576123
2024-04-18 22:02:40.339,0.0012858044570749807,-0.24118142337514778,-9.747806100977481,0.0003114380157344269,3.465553402712818e-05,4.692048565617827e-05,-0.05278813983157083,2.462178740116176e-05,5.386164593318547e-05
2024-04-18 22:02:40.367,0.0012711874909323382,0.5456777321365063,-9.791111387920864,0.0006912351051205039,3.5810770222399767e-05,4.6968659228375916e-05,0.015191887649237106,4.549842225649167e-05,2.422111691435736e-06
2024-04-18 22:02:40.401,0.0008449593050253,0.9763745769394646,-9.86389787582793,0.00046933818023368765,3.650077513623329e-05,4.696783749270491e-05,-0.008875877194136956,2.8016952244588355e-05,-3.638246364316218e-07
2024-04-18 22:02:40.433,0.0007266535642895581,0.9357009679060436,-9.847067108191156,0.0010057166510149922,3.642841071313638e-05,4.629440943462699e-05,0.021455145729790417,-3.928369914880925e-06,-2.6149785099478142e-05
2024-04-18 22:02:40.463,0.0008045995586877259,0.8350465894095822,-9.798079170564154,0.002644457128991025,3.666440456078984e-05,4.757240101196103e-05,0.06554973408019375,6.54860815536553e-06,5.349289073715519e-05
2024-04-18 22:02:40.495,0.00036842214070431704,0.38698653132998095,-9.792365041179009,0.0034184532290679245,3.5387956975450854e-05,5.169493595609678e-05,0.03095997873523549,-5.196240761861289e-05,0.00016621569937257832
2024-04-18 22:02:40.525,0.0004447691838071242,-0.28680619818427033,-9.816728904235015,0.0009287335382888634,3.6619128652807947e-05,5.215997816436236e-05,-0.09958904653652444,5.4413483890652945e-05,1.5033318825084887e-05
2024-04-18 22:02:40.555,0.0008350346719372731,-0.1387011310330055,-9.79067655343143,-0.0012388155670324762,3.7517368295001755e-05,5.2263949090457224e-05,-0.0867019803295878,4.045414058967788e-05,1.0389058074023331e-06
2024-04-18 22:02:40.587,0.0011342235184350203,0.9487269257567141,-9.777869937316174,0.0005403496813140204,3.917987477644738e-05,5.152263940276523e-05,0.07116662814211806,6.27686001818847e-05,-2.70130165587605e-05
2024-04-18 22:02:40.619,0.0004642243119463724,1.4381115980505093,-9.83558539150762,0.0033135490328633998,4.0434823204102e-05,5.124284042631599e-05,0.11092821835555544,4.446575441141674e-05,-6.985263880545071e-06
2024-04-18 22:02:40.649,0.0008317398285846313,0.49770474980311263,-9.879846681028436,0.0027426147382546198,4.00069386744056e-05,5.382595104122822e-05,-0.02283748174693443,-1.566395288351269e-05,0.00010244467488300618
2024-04-18 22:02:40.679,0.0004302193639498218,-0.339657279129586,-9.804605878857059,0.0021127016000803303,3.9672982292421905e-05,5.8910389259822465e-05,-0.02519660890269863,-1.157413245562164e-05,0.00020239482164154457
2024-04-18 22:02:40.710,0.00015957376244061364,-0.23021614249700376,-9.741267564888442,0.0016072803475722457,3.8906109033562584e-05,6.23030912196241e-05,-0.02021689231294395,-2.926687244808247e-05,0.00013495352972146365
2024-04-18 22:02:40.739,0.0019071076113989075,0.18214292948666086,-9.76897999810243,0.000908017160494294,3.964823199143887e-05,6.342995052558875e-05,-0.027970550030158737,3.146787823927618e-05,4.395820121491384e-05
2024-04-18 22:02:40.769,0.001001540713510201,0.5101526088381344,-9.849115738361233,0.0003554783950715437,4.024229779604304e-05,6.307299526355534e-05,-0.022101553163708865,2.5159386149647293e-05,-1.5163055261509135e-05
2024-04-18 22:02:40.799,0.001031860212935619,0.848517648852989,-9.856253394234066,-7.576868346553808e-05,4.160966861187258e-05,6.249514599801282e-05,-0.017249878982186648,5.5784787706537875e-05,-2.3803684168225202e-05
2024-04-18 22:02:40.828,0.0005836905223917221,1.075141802586399,-9.795955382665875,0.0014515184972353349,4.2098126439638716e-05,6.212758053707716e-05,0.06109150928447389,1.5704669329087964e-05,-1.2180514921033907e-05
2024-04-18 22:02:40.859,0.0008481551669373808,0.925011728843117,-9.795496054393894,0.002651121624295675,4.263623375226711e-05,6.231930097416462e-05,0.04798422979329796,1.8569986727003684e-05,9.64145388677246e-06
2024-04-18 22:02:40.888,0.0006572132428086167,0.25793768866557193,-9.827600418396646,0.002785403425044943,4.293834211590325e-05,6.616177756752886e-05,0.005371286043508297,1.2178321425013583e-05,0.00015389477353413753
2024-04-18 22:02:40.920,-0.0001359719411984782,-0.21219392812634788,-9.825308247384875,0.002025965663328223,4.241970366834481e-05,6.825339578493031e-05,-0.03037760392035122,-1.8568307322318533e-05,8.239891616309025e-05
2024-04-18 22:02:40.949,0.0017260019068192165,-0.14042880999681606,-9.780255985639007,-8.060783575979616e-05,4.2679707342022624e-05,6.823008514807699e-05,-0.08426299438072501,1.6155505877636117e-05,-4.499474149621757e-06
2024-04-18 22:02:40.979,0.00127085254110261,0.4793664649383261,-9.759743886304145,-0.00033242255486247766,4.371212349126516e-05,6.760579715977077e-05,-0.010072585062802923,4.199239521710067e-05,-2.538737024903962e-05
2024-04-18 22:02:41.010,0.0006069238959789859,1.2102051761742085,-9.824773202591173,0.002603289064878569,4.351227650838331e-05,6.839283140505304e-05,0.11742858037034279,-1.5829783959480558e-05,3.6667402010752574e-05
2024-04-18 22:02:41.038,0.0009529239550688539,0.8772764840479002,-9.892086680516208,0.004553661020223674,4.344917290915037e-05,7.272941433090453e-05,0.0780153821804211,-7.0510668255767595e-06,0.0001768970879251345
2024-04-18 22:02:41.067,-0.00047292586514406106,-0.34567830839232194,-9.843468012272503,0.0020680502130049215,4.232841471477972e-05,7.648021737288982e-05,-0.09942501206776597,-3.729240449440448e-05,0.00014579861338676086
2024-04-18 22:02:41.096,0.001783929548615618,-0.6487796357015507,-9.721378706590912,-0.0009349286891486293,4.4150541489824804e-05,7.69295538999457e-05,-0.12011921524413913,8.206733638232442e-05,1.297953938668387e-05
2024-04-18 22:02:41.125,0.001035942007910275,0.5565468597841543,-9.717813510812364,-0.0002296418155488466,4.620206574202775e-05,7.7224874566072e-05,0.028211485961366425,7.988811175979184e-05,1.3077490308195871e-05
2024-04-18 22:02:41.153,0.0010745325483945745,1.5051648935643867,-9.855666195378662,0.0014301689844301879,4.730644705189284e-05,7.61194367818064e-05,0.06639245680761614,3.899176609822069e-05,-4.120159619703929e-05
2024-04-18 22:02:41.182,0.0009215424671523272,1.1356356247166013,-9.923479793502512,0.0022220500492721954,4.884731392083383e-05,7.590852560553e-05,0.0316753012120825,5.92086017830838e-05,-7.0686285515968816e-06
2024-04-18 22:02:41.212,0.0006504400321604587,0.37916907694877783,-9.829436986426556,0.0017017351260900078,4.809963971569657e-05,7.820477220591033e-05,-0.02081264381182371,-2.817223100177604e-05,9.088170696648613e-05
2024-04-18 22:02:41.242,0.0009031267407727765,0.14196754399189285,-9.715400267871642,0.002597592975452201,4.7142635665927546e-05,8.390834342135201e-05,0.03583438411269664,-4.0484568213052626e-05,0.0002299736639417286
2024-04-18 22:02:41.271,8.530036431718487e-05,0.09360126997468549,-9.769647570092205,0.002248566933340266,4.6039778277336773e-05,8.776396717042906e-05,-0.013961093455259947,-4.2597314472998917e-05,0.000153663163766134
2024-04-18 22:02:41.300,0.002074843141957346,-0.01917055251291191,-9.85721945509483,0.00037726389003578186,4.752254085044773e-05,8.85623414307699e-05,-0.07485219309867037,6.58937946816595e-05,2.847008347158019e-05
2024-04-18 22:02:41.330,0.0010644444052199608,0.36327326290885786,-9.841378031382076,-0.0004678145351152389,4.950154424665985e-05,8.948180612794122e-05,-0.033803132682726916,8.213803562239195e-05,3.5211871672011507e-05
2024-04-18 22:02:41.359,0.0010121824603991473,1.1052327491418736,-9.777060059243755,0.00044670704323867996,5.099062412946243e-05,8.870905657964683e-05,0.03658087112051543,5.6277697905714966e-05,-2.9122818520360577e-05
2024-04-18 22:02:41.390,0.0010060846284052208,1.2649050545784106,-9.79118673191357,0.0023712703145003294,5.279279009215071e-05,8.837828163482935e-05,0.07698262582933108,6.523913028378634e-05,-9.453762844052848e-06
2024-04-18 22:02:41.420,0.0008445050806554415,0.6376974156381858,-9.861554016415724,0.002402827068689174,5.242621609909308e-05,9.01149441303887e-05,0.0012622688322032035,-1.4607397138130422e-05,6.956844052608681e-05
2024-04-18 22:02:41.451,0.0009434702071559622,0.00434599330495516,-9.83740761717056,0.00246366872974394,5.0931535310225526e-05,9.471315399907613e-05,0.0024336589111706836,-5.9552901955970485e-05,0.00018420326760368603
2024-04-18 22:02:41.483,0.000629411464051023,-0.1431189002012239,-9.7730577938017,0.0014364161103451365,4.953194540480948e-05,9.772793035677095e-05,-0.041090195740170116,-5.192047082613085e-05,0.00011857496925855342
2024-04-18 22:02:41.514,0.0017767422272858438,0.09950884087015792,-9.74934865048455,0.0003031715773592932,5.090038432418625e-05,9.797633612221261e-05,-0.045329795768737434,5.917114525180323e-05,7.675529645203624e-06
2024-04-18 22:02:41.543,0.000861569945987295,0.6089499251158479,-9.812812692994767,-0.0001573972562302687,5.300568760635217e-05,9.843055421169808e-05,-0.01842274615231696,8.601462762145156e-05,1.724495319503898e-05
2024-04-18 22:02:41.572,0.0008142468868543534,1.0888765863769632,-9.858842191471762,0.0006323196197791286,5.515837797753846e-05,9.734850341461878e-05,0.03158868741068252,8.297265967607819e-05,-4.1658898074761096e-05
2024-04-18 22:02:41.602,0.0009222056820260427,1.1071090293465549,-9.842394290527228,0.002202332046976476,5.671175383148569e-05,9.704633095318465e-05,0.0628005729513423,5.600509864370716e-05,-8.741486049942271e-06
2024-04-18 22:02:41.636,0.001089498118155507,0.5605727458938863,-9.806615114084101,0.0029839093139382156,5.611013731795075e-05,9.912707155603696e-05,0.03126318940474797,-2.684418109739644e-05,8.508427980773082e-05
2024-04-18 22:02:41.682,0.0009598601819764206,-0.05463881857080409,-9.786914941731224,0.0036864468917005362,5.391444495997887e-05,0.00010165801897304854,0.02810164566192684,-9.023313444608232e-05,0.00010314900345795758
2024-04-18 22:02:41.729,0.0015729693805981216,-0.5273411556664864,-9.802755992914964,0.0005550645723159669,5.449558071306175e-05,0.00010171413368029375,-0.12525562254590247,3.598672429443828e-05,-4.508527368617553e-06
2024-04-18 22:02:41.775,0.0005797302330612804,-0.13375867803423427,-9.77043584148192,-0.0022121557205516417,5.4892184386868325e-05,0.00010237695606387731,-0.11068888413106735,2.708569506375685e-05,2.055639378020975e-05
2024-04-18 22:02:41.816,0.0010749877732085574,1.2530251858716044,-9.78433638904136,-0.00027698653001007067,5.7404039270813036e-05,0.00010369094563097663,0.07740684637320253,9.253789402708548e-05,5.684191303929297e-05
2024-04-18 22:02:41.857,0.0007501486364383141,1.8750694155427254,-9.856854004133908,0.0004083104548810472,5.8944524298560415e-05,0.0001040603558824145,0.02741188531437485,5.8784247972286807e-05,1.6326936058756656e-05
2024-04-18 22:02:41.897,0.0010940285441078718,1.255156674643056,-9.86154684523224,8.727238526046403e-05,5.872055315422273e-05,0.00010515021540695393,-0.01284152663448462,-7.6186919440202636e-06,4.2838323188778466e-05
2024-04-18 22:02:41.934,0.0015060460294519108,0.8428185021190499,-9.803019277794302,-0.0001410208786401765,5.706196898515167e-05,0.00010566652404716104,-0.009131738668954404,-6.538593790558589e-05,2.0107014025699976e-05
2024-04-18 22:02:41.980,0.001654919328596855,0.8769294412588687,-9.751524964973541,-2.2869561059668808e-05,5.739100270965183e-05,0.00010594235568780398,0.004726053445044428,1.2661720866550922e-05,1.1303262694560776e-05
2024-04-18 22:02:42.020,0.0004373279628325549,0.8848519924772422,-9.791748319399389,0.0001758188073905043,5.8136016696316205e-05,0.00010669410068000508,0.007947536125827768,2.8963990893222272e-05,3.05209086799049e-05
2024-04-18 22:02:42.058,0.0009204749279016299,0.7809902810673189,-9.850738661002673,5.983934107296392e-05,5.934431399583502e-05,0.00010744853165290195,-0.004639175286360401,4.8828670177787066e-05,2.990464284904959e-05
2024-04-18 22:02:42.104,0.0006574880643832724,0.6755452311338793,-9.835255423935106,-5.107373866202274e-05,6.170653388607414e-05,0.00010815834338000198,-0.004436514756824266,9.496407113914149e-05,2.81340640115899e-05
2024-04-18 22:02:42.144,0.000962756058444054,0.663693002333545,-9.788065776982014,3.732741072183599e-06,6.26909855475578e-05,0.00010857751310705565,0.002192262380950665,3.914102209432958e-05,1.690192652084674e-05
2024-04-18 22:02:42.175,0.0016367601933978545,0.6466632692796861,-9.78818424120788,8.28132073324838e-05,6.109689569971156e-05,0.00010987093795051052,0.003163208545852087,-6.410273874292559e-05,5.1940621106993325e-05
2024-04-18 22:02:42.205,0.001572794331298054,0.58007464550081,-9.822073391707853,9.346008743397627e-05,6.0541117957176885e-05,0.00010996155263044778,0.00042587254030197633,-2.2277559470656e-05,3.652689043316401e-06
2024-04-18 22:02:42.243,0.0009668970501523004,0.5144234124006759,-9.827238692725846,6.895885211389439e-05,6.0892052079108976e-05,0.00011028910191895295,-0.000980048662373655,1.4146032760010916e-05,1.3041664258854357e-05
2024-04-18 22:02:42.288,0.00077852701278262,0.4744093450648928,-9.801468718913473,-5.318224696865664e-05,6.059099118094835e-05,0.00011127631854569984,-0.004885647648893446,-1.1505668420191212e-05,3.919058933613784e-05
2024-04-18 22:02:42.334,0.0008898898020346632,0.4678962093426784,-9.79105671928833,-0.00015082957761480744,6.293191383075042e-05,0.0001119655458725648,-0.00390588453202872,9.406742714629435e-05,2.7346641557667254e-05
2024-04-18 22:02:42.375,0.0004940921506400005,0.478255859910465,-9.812415390803308,-8.471683574768873e-05,6.664582164888136e-05,0.00011254437890645034,0.0026445247594944297,0.00014825824770068794,2.3332316374658133e-05
2024-04-18 22:02:42.403,0.0008894274263189274,0.46833302871325566,-9.831692277066123,6.341562741234087e-05,6.564179433016152e-05,0.00011424334399439129,0.0059252895017552504,-4.082358711111867e-05,6.83561382657518e-05
2024-04-18 22:02:42.432,0.0021359089154923756,0.4018153513385142,-9.819201286156414,8.430332345128809e-05,6.488311499419916e-05,0.00011430621630875,0.0008355042064055617,-3.0442407178064328e-05,2.572303992491657e-06
2024-04-18 22:02:42.461,0.0014515856711954163,0.32617028970533535,-9.792999923747967,3.8452448391238e-05,6.433086268875128e-05,0.00011481190298342192,-0.0018340388165569092,-2.1879674404918102e-05,2.0109315155721222e-05
2024-04-18 22:02:42.489,0.0007449677114844291,0.2899333056652932,-9.792932682261275,-8.183345587497517e-05,6.477309524076253e-05,0.00011523270042769067,-0.004811435192299076,1.8240378736534398e-05,1.6523900090912445e-05
2024-04-18 22:02:42.519,0.0007872238451345965,0.299831516478297,-9.813986438779803,-0.00014479459777329794,6.572375351701152e-05,0.00011620409782403703,-0.002518443843090954,3.831094069783194e-05,3.8698325552858896e-05
2024-04-18 22:02:42.555,0.0007868694434878582,0.326693738078344,-9.82455918467369,-0.00015048311645773585,6.912257185889816e-05,0.00011667469940241866,-0.0002275262524086517,0.00013597634243473112,1.882957183830085e-05
2024-04-18 22:02:42.585,0.0005931946563086988,0.3317502839078526,-9.815719071215323,-3.0271710468923607e-05,7.235678999829506e-05,0.00011711395054192397,0.004808470038117763,0.00012880717796037375,1.790635248714275e-05
2024-04-18 22:02:42.612,0.001274287054413101,0.2825055224515669,-9.807125758227507,3.51294892510698e-05,7.145179177641623e-05,0.00011833355386566268,0.002616040239708153,-3.650457740503767e-05,4.897471411888407e-05
2024-04-18 22:02:42.640,0.0020784720995414984,0.2196021561135212,-9.804067574434498,8.031726285816673e-06,6.982924591833527e-05,0.00011867085280367033,-0.001083919131012079,-6.477346214255366e-05,1.3415031656439703e-05
2024-04-18 22:02:42.667,0.00137050987830343,0.18424541629243993,-9.80570707461698,-7.67745159510121e-05,7.011419095198202e-05,0.00011939822980277488,-0.0033922503479164564,1.1798157132135807e-05,2.8859124909208772e-05
2024-04-18 22:02:42.695,0.0005908121014685355,0.18559605224020903,-9.808978903798458,-0.00017696248165573463,7.03707403422273e-05,0.00012021301190930978,-0.004007519692578758,1.0734762660514202e-05,3.231222469894526e-05
2024-04-18 22:02:42.723,0.000911871166696019,0.2114898744868267,-9.8110341463585,-0.00021746011449382061,7.314691800573143e-05,0.00012086548974666685,-0.0016198938910290594,0.0001112361889030945,2.600931459958391e-05
2024-04-18 22:02:42.751,0.00044963739749676875,0.22962325820858948,-9.814222249644496,-0.00011878088618416687,7.680799496257302e-05,0.00012130177277296775,0.003947185506164438,0.00014596390727601613,1.7757407047968207e-05
2024-04-18 22:02:42.796,0.0010245781791058373,0.20946510654620784,-9.81720145728693,-1.90474113636923e-05,7.7301681109363e-05,0.0001223679997609825,0.003989338060956599,1.926272937544285e-05,4.295588407006457e-05
2024-04-18 22:02:42.841,0.0018446065529744986,0.1565998418497928,-9.811729937420948,-3.4991653472459003e-05,7.554299011914321e-05,0.0001231621050235663,-0.0006377806858982272,-7.02707057153315e-05,3.1712451055274833e-05
2024-04-18 22:02:42.885,0.0017816881160825867,0.11113532290989396,-9.801070951060748,-8.474663791025171e-05,7.554679972025491e-05,0.0001234611684344513,-0.0019902002455974236,3.9650399485764385e-07,1.1812230624203325e-05
2024-04-18 22:02:42.924,0.0006640478173456057,0.1061093804842528,-9.801277239001227,-0.00019482524951960247,7.426680470495025e-05,0.0001240727544853156,-0.004403152602201397,-5.066086480172581e-05,2.4120958555100125e-05
2024-04-18 22:02:42.953,0.0011644097314182239,0.13286265553813853,-9.811014774849868,-0.00024807827612128143,7.712327950579745e-05,0.00012460635720803957,-0.0021301085659579293,0.00011451802660173215,2.1214329888054245e-05
2024-04-18 22:02:42.983,0.0003309929524236614,0.16458003174645675,-9.818318113000856,-0.00020304696550342558,7.951319244784104e-05,0.00012521799004340978,0.0018012624151198104,9.536707531214766e-05,2.4623602496384656e-05
2024-04-18 22:02:43.010,0.0015324947480321446,0.16738690979617424,-9.817152283457325,-9.879097770507263e-05,8.288574094732406e-05,0.0001262091009373781,0.004170253117781718,0.0001343758181177081,3.998932886748965e-05
2024-04-18 22:02:43.039,0.001357883945182374,0.1260838767988349,-9.811170864505959,-6.227568080333365e-05,8.149672444198811e-05,0.00012676999036051215,0.0014606030239905992,-5.574640465260488e-05,2.2553172101109364e-05
2024-04-18 22:02:43.072,0.002914327931468632,0.07775922962455478,-9.802878648092216,-0.00010346994248179102,8.004869939986851e-05,0.00012741493084277903,-0.0016477798621617704,-5.771476560921448e-05,2.5657363606934734e-05
2024-04-18 22:02:43.105,0.0013288660562478063,0.062120370381149564,-9.801618568708612,-0.00019459800661965736,8.004235844371384e-05,0.000127875970518672,-0.0036451240748682267,2.0728635914646134e-07,1.8149861643876446e-05
2024-04-18 22:02:43.138,0.0012401445027168789,0.08311389361502736,-9.80913070937091,-0.0002626404358520753,8.023621781768106e-05,0.00012870683927846899,-0.0027216988861996807,8.093750492137723e-06,3.301903829840749e-05
2024-04-18 22:02:43.167,0.0011870416874516512,0.1139054340923418,-9.815117623125206,-0.0002812892221885474,8.239808880824284e-05,0.00012928027825017814,-0.0007459422351852132,8.656441037287177e-05,2.29020589819349e-05
2024-04-18 22:02:43.195,0.0010231772276398192,0.12854666318778896,-9.816084522176245,-0.0001862235534481315,8.579289757885989e-05,0.00012972233235304564,0.00380264284376235,0.00013529740706733474,1.8020714053991923e-05
2024-04-18 22:02:43.225,0.0013398213002612214,0.1066641522171006,-9.814328141016201,-0.000105049471779533,8.599081192026181e-05,0.00013101959358088704,0.0032469598267722867,7.489901477923015e-06,5.216982003560075e-05
2024-04-18 22:02:43.257,0.0021716892652745624,0.05959527378554087,-9.80760501680164,-0.0001371018722422316,8.38535861504111e-05,0.00013149567359312345,-0.0012821088096362338,-8.532364363393873e-05,1.8921255964848008e-05
2024-04-18 22:02:43.285,0.0022861583425835,0.034187555151756095,-9.801226109394308,-0.00019166247755858257,8.335923496469024e-05,0.000131958394252643,-0.0021824283592834313,-1.949057480241537e-05,1.8322094711272304e-05
2024-04-18 22:02:43.317,0.0010812954483575836,0.04044206006069895,-9.804637450690839,-0.0002885013835384939,8.277192002882946e-05,0.00013261499483707107,-0.003873561579943793,-2.298891621638757e-05,2.59345200561661e-05
2024-04-18 22:02:43.347,0.0013147824064042685,0.06875880754627363,-9.812515694239828,-0.00033625216980294524,8.458603831030322e-05,0.00013333616458167266,-0.0019100243402695011,7.280838304160652e-05,2.8713183401973114e-05
2024-04-18 22:02:43.387,0.000887310617291487,0.0938954503875757,-9.816863107811642,-0.0002753399337053514,8.743171279765598e-05,0.00013384722234347385,0.00243650291306713,0.00011349642361040832,2.067966562398676e-05
2024-04-18 22:02:43.415,0.0013260111276455471,0.0978516290067969,-9.81611562834876,-0.00017175452490307091,8.899338075941395e-05,0.00013515770622438058,0.004143420097255,6.190308635469754e-05,5.2792283876337685e-05
2024-04-18 22:02:43.444,0.001650703189892444,0.05701099819148806,-9.810744598183806,-0.00016481430863749796,8.842022452632562e-05,0.00013544074116131693,0.00027760455132908653,-2.2965639620648494e-05,1.1342317809908214e-05
2024-04-18 22:02:43.472,0.002453741453205845,0.01827930377238012,-9.802402276617926,-0.00022441150575792904,8.670522194964804e-05,0.00013612168197459594,-0.002383899552248967,-6.828328397141966e-05,2.7011534683195447e-05
2024-04-18 22:02:43.501,0.0015848979430577764,0.017707851293585167,-9.801738057389258,-0.00029768049784329733,8.626349173454272e-05,0.00013648149646475967,-0.0029307633928283413,-1.727446706278443e-05,1.4133340268412034e-05
2024-04-18 22:02:43.530,0.00116778837333497,0.04155367972080115,-9.810159913899232,-0.00035684182628085146,8.541602291160371e-05,0.00013736773454172215,-0.002366460889272495,-3.3588344086604815e-05,3.523341042476913e-05
2024-04-18 22:02:43.559,0.0014214765322001855,0.0731522364546414,-9.816160518094723,-0.0003708116848518361,8.554914121215901e-05,0.00013779712540027493,-0.0005587951114612411,5.39514124575219e-06,1.7129906806302328e-05
2024-04-18 22:02:43.588,0.001127209535418487,0.08444557514841498,-9.81652671411367,-0.00031005594792723643,8.740524506544193e-05,0.0001383685756568982,0.0024302378151614705,7.390212635961836e-05,2.3088840402085474e-05
2024-04-18 22:02:43.617,0.0013379734032247842,0.07073523602768822,-9.812841750257714,-0.00015008450971969222,8.708513000196951e-05,0.00013932831504322516,0.00639885250360689,-1.3695803569702981e-05,3.894688497348727e-05
2024-04-18 22:02:43.645,0.0018392793130674154,0.021285304581757602,-9.806632436683165,-0.00021270291785514326,8.495832277386926e-05,0.00014028740117606918,-0.002504751446038845,-8.47314123402324e-05,3.812730836976589e-05
2024-04-18 22:02:43.674,0.002054008614533317,-0.018134488257550842,-9.80075560525196,-0.00033903494093164683,8.452984088492021e-05,0.0001406348585512541,-0.005053284630519907,-1.643490201878732e-05,1.346345014874077e-05
2024-04-18 22:02:43.702,0.0011997766654295568,0.008405842309924349,-9.805594663987561,-0.0003907382603155074,8.309162029638895e-05,0.00014150618933396657,-0.0020681438725505276,-5.725151248533386e-05,3.465605169897911e-05
2024-04-18 22:02:43.731,0.001434449097894076,0.05182523390747427,-9.813782013484385,-0.00034097956246780095,8.49727916171575e-05,0.00014194931227040216,0.0019903571586028903,7.495910551639273e-05,1.791586726791768e-05
2024-04-18 22:02:43.760,0.0007651641658777104,0.06557194199155755,-9.818286913696088,-0.0003072619432695484,8.9799373949097e-05,0.0001424772924296285,0.0013487303215960567,0.00019286531309941263,2.1293076397719854e-05
2024-04-18 22:02:43.789,0.0007468326217553232,0.03594286729177811,-9.815589058590083,-0.0003068894141882264,9.119221049720455e-05,0.000143583674518075,1.4905062407832119e-05,5.569775457030329e-05,4.4273717776731024e-05
2024-04-18 22:02:43.818,0.0024162898501451117,0.027594809179289484,-9.807377587839722,-0.0002849549067527927,9.272839856265406e-05,0.0001438344194769992,0.0008773882136800747,6.131866243319051e-05,1.012728431698972e-05
2024-04-18 22:02:43.846,0.0015869611089533854,0.017112777101194597,-9.801202453802038,-0.0002971515238900045,9.235226582989611e-05,0.0001443075685351134,-0.0004878686113297863,-1.4980746730154384e-05,1.8876273034471104e-05
2024-04-18 22:02:43.875,0.0022226804129993416,0.00799163788783035,-9.804574958949049,-0.0003807395592538337,8.837163235812146e-05,0.00014533083197470684,-0.003343548152490369,-0.00015875828377564277,4.0561331407051216e-05
2024-04-18 22:02:43.903,0.002076858894759535,0.021905996169135737,-9.812808129514368,-0.00044379383598705155,8.902514000730476e-05,0.00014570973961380927,-0.002522168799621115,2.650023229388558e-05,1.4945191275137212e-05
2024-04-18 22:02:43.932,0.0004899466903287012,0.05591929992048834,-9.815617743324019,-0.0004914887462158114,8.965134135511552e-05,0.0001465629384012178,-0.0019077960033271645,2.5309349698736173e-05,3.397056018288226e-05
2024-04-18 22:02:43.959,0.0012658367743391093,0.07649161707859256,-9.814159851034962,-0.0003866292649944343,9.169061646788741e-05,0.00014737913876563288,0.00419438854862695,8.094350939115678e-05,3.3055377456495856e-05
2024-04-18 22:02:43.987,0.0013100303991313673,0.07171363618438323,-9.812843706035027,-0.00019905719046379243,8.94813839871662e-05,0.00014860068724425232,0.007502865808075467,-8.94848634541492e-05,4.9532174328921754e-05
2024-04-18 22:02:44.015,0.0025073957490838114,0.0038023787523566825,-9.807200170897683,-0.00023057313565992188,8.747543277236754e-05,0.0001486737571296371,-0.0012606499960721724,-8.005136033698128e-05,2.791536071225343e-06
2024-04-18 22:02:44.053,0.001579775464504388,-0.044845729560599124,-9.801314957563708,-0.0004353001755672734,8.620203235545448e-05,0.00014913507182310383,-0.008189091107221621,-4.9726157086278004e-05,1.7714724212264316e-05
2024-04-18 22:02:44.098,0.001179443983657818,-0.018677987804549743,-9.804551023960018,-0.0005683042122818723,8.480669223584041e-05,0.00015035716969689263,-0.005320174535575623,-5.504766194313876e-05,4.839408256204384e-05
2024-04-18 22:02:44.143,0.0012872863251439039,0.0695265406366579,-9.813236351613837,-0.0005280860210623751,8.754934975622093e-05,0.00015103700380358068,0.0016087419729593968,0.00010944997156214961,2.7387604435846244e-05
2024-04-18 22:02:44.180,0.0003484338412166754,0.10253675431624337,-9.819245989637873,-0.00035449491391508685,9.252614484795519e-05,0.00015141777727349583,0.006943673509289254,0.00019801748059017723,1.59091412941971e-05
2024-04-18 22:02:44.222,0.001219387694453596,0.0634065560813324,-9.818638487951306,-0.00029309840774384915,9.40286392712842e-05,0.00015261524285919677,0.002455864929176191,5.9713815061133036e-05,4.814337141870471e-05
2024-04-18 22:02:44.267,0.0024148439355369104,-0.0014024315776254418,-9.806645288934083,-0.00035038591892194953,9.410684680404965e-05,0.00015296888069547782,-0.0022915013838134424,3.4731444686970994e-06,1.3931274732084338e-05
2024-04-18 22:02:44.312,0.0019431256178197216,-0.02154309388509634,-9.797065053460823,-0.0004641786473715707,8.971537812689335e-05,0.00015428401216581258,-0.004551741034705685,-0.00017498665135136149,5.2095729724504206e-05
2024-04-18 22:02:44.356,0.0028139223814339104,0.011508907436071985,-9.802662953794178,-0.0005387217223506449,8.894554009358548e-05,0.0001544625676148095,-0.002981728712995454,-3.0337177939237927e-05,6.858385992430106e-06
2024-04-18 22:02:44.402,0.0005682736741709738,0.04950457006514019,-9.816001261942029,-0.0005125776093754551,8.970882762542304e-05,0.0001556408000011974,0.0010457651296935581,3.0345762312246136e-05,4.723787523450022e-05
2024-04-18 22:02:44.431,0.000727108226353721,0.07517366527657078,-9.81926368476595,-0.0003995485694900535,9.224235174066165e-05,0.00015707900814699395,0.004521172451903468,0.00010061415480456425,5.79741604974574e-05
2024-04-18 22:02:44.470,0.0012070165662087372,0.05328254130051625,-9.807294420737758,-0.00033445657854836857,9.273289901216315e-05,0.00015797667590653925,0.0026036795200044894,1.9200824956823643e-05,3.615331768370414e-05
2024-04-18 22:02:44.509,0.0018815573769075378,0.020197134968134217,-9.798818920050035,-0.00039277226725430283,9.22614804619022e-05,0.00015840355299696722,-0.0023326322185120408,-1.8494854765986936e-05,1.685151992900492e-05
2024-04-18 22:02:44.540,0.0021832175875566868,-0.0007756947156759627,-9.823497290724552,-0.0004594847819108609,9.152281352382286e-05,0.00015909742238980342,-0.002668508005834768,-2.9136605355208395e-05,2.749520484799888e-05
2024-04-18 22:02:44.571,0.0013525450793756006,0.02528546199709311,-9.816335792994941,-0.00046772512273404824,9.094577149834621e-05,0.00015936073870362157,-0.0003296182927735343,-2.3034149618762234e-05,1.0491712847204107e-05
2024-04-18 22:02:44.609,0.0014446412474672394,0.04857407690293931,-9.7969310361487,-0.00038959089289517434,9.116154307247581e-05,0.0001601667164635239,0.003125367862910189,8.120141848562835e-06,3.252653539759574e-05
2024-04-18 22:02:44.655,0.0011676080262285164,0.06167862755218754,-9.784145281658127,-0.00031506644343702887,9.41783049754188e-05,0.00016091596010869876,0.0029809946115274613,0.00012018349812953561,3.0279383460901615e-05
2024-04-18 22:02:44.700,0.0007539968561316238,0.024342433724760432,-9.835991541263118,-0.0003317631935797314,9.543527711942006e-05,0.0001612046546727748,-0.0006678630424865688,5.038254395121047e-05,1.1501601155424818e-05
2024-04-18 22:02:44.739,0.0019421628154054718,-0.008996292426834428,-9.847215095341234,-0.0004058853110910997,9.74350263487429e-05,0.00016168688123541724,-0.0029648738387629335,8.046021160548991e-05,1.9038786178312307e-05
2024-04-18 22:02:44.769,0.0013540048438821495,0.005442403394932557,-9.798667952667861,-0.0004434809365269487,9.836518324359763e-05,0.00016295183301990603,-0.0015038240926323876,3.742704985730969e-05,5.046815486704354e-05
2024-04-18 22:02:44.803,0.0018902796921629792,0.035976387081217726,-9.772010987277552,-0.00043128061239068924,9.630087077362776e-05,0.0001634634647307927,0.0004879975792838526,-8.266085938499444e-05,2.0477623119925955e-05
2024-04-18 22:02:44.839,0.002717942125453365,0.046746049937368556,-9.80400023981555,-0.00042466822291835024,9.313499253706113e-05,0.0001645156269673321,0.0002644709805872682,-0.0001266962351724662,4.20581590203611e-05
2024-04-18 22:02:44.882,0.0012759099566818607,0.03397727234693859,-9.837312436007956,-0.00048251824734806497,9.310103318823588e-05,0.0001651362618461362,-0.0023140037108721747,-9.895525746243875e-07,2.460941727396255e-05
2024-04-18 22:02:44.927,0.0005370164132772105,0.029186719144265936,-9.824871736514886,-0.0005080551371478613,9.609706614105699e-05,0.00016565245512343158,-0.0010214579000945526,0.00011999954387879081,2.0613603858170363e-05
2024-04-18 22:02:44.967,0.0009064908194063023,0.0539487663287033,-9.79800671367129,-0.0004147999048421318,9.824973818212379e-05,0.00016696355546252055,0.003730218724819346,8.546707021143168e-05,5.2837962710633145e-05
2024-04-18 22:02:44.997,0.0017293891207231197,0.04079427230368303,-9.79757104099158,-0.00030070544951715637,9.625177140250636e-05,0.00016779459310759757,0.004563761881252346,-8.069075612169792e-05,3.366567566023993e-05
2024-04-18 22:02:45.026,0.002552872096365543,-0.0011164179720219072,-9.8118097517618,-0.00038641692200493095,9.545480379164847e-05,0.00016915666199311883,-0.003428469591336319,-3.1324335436418835e-05,5.414068460172202e-05
2024-04-18 22:02:45.053,0.0010515522956973044,-0.030950212052317624,-9.811639506003246,-0.0005066134195820664,9.558937319906229e-05,0.00016904649044437585,-0.004807858962544101,6.198549623335663e-06,-4.862606753252634e-06
2024-04-18 22:02:45.082,0.0015313009680806666,0.030990157376045338,-9.788372461491269,-0.00039439649276203927,9.564587741215832e-05,0.00016962542230541526,0.0044886756115213805,1.4920952633311166e-06,2.3586977461397156e-05
2024-04-18 22:02:45.110,0.0014002761548654035,0.07513256885092844,-9.80619853351626,-0.00034532699457513885,9.807724815786748e-05,0.00017033804279380807,0.0019627937200153356,9.691198247366957e-05,2.8726029408322893e-05
2024-04-18 22:02:45.139,0.0008616970137597811,0.03596096114231365,-9.852435716917533,-0.0003291107863812782,0.00010047587149795825,0.00017051507213536335,0.0006486639797855279,9.583208721037666e-05,7.176333621074049e-06
2024-04-18 22:02:45.168,0.0014874848123486964,0.006293645011574593,-9.833698252664309,-0.0003748610724494346,0.00010255156964519966,0.00017132405397673691,-0.0018300006859131523,8.332790726962237e-05,3.220664916264537e-05
2024-04-18 22:02:45.196,0.0015292190211203577,0.005966232391455814,-9.780019336584038,-0.0004158876889016964,0.00010160106595870502,0.00017257356594636137,-0.0016410763478619428,-3.775970192190472e-05,4.9796491093784916e-05
2024-04-18 22:02:45.224,0.0024416946166501844,0.021930769666766978,-9.776764271208105,-0.00043612348833281793,9.962056263472406e-05,0.00017322190628040824,-0.00080944828816376,-7.909171119941546e-05,2.581688316401761e-05
2024-04-18 22:02:45.252,0.0019897084563030745,0.038321697683102375,-9.820148068640798,-0.00044088813399975087,9.831268713527724e-05,0.00017406363240003372,-0.00019059821376006563,-5.229683601876985e-05,3.3627004235415656e-05
2024-04-18 22:02:45.280,0.0008893893412300995,0.03722368060701274,-9.838888326861612,-0.0004655495520472979,9.910014840726832e-05,0.00017417196945203965,-0.0009864517518994326,3.1668182350209526e-05,4.251247127304186e-06
2024-04-18 22:02:45.309,0.0011577798052586398,0.03952234977622066,-9.814162086209034,-0.0004471093677717278,0.00010137737128329618,0.0001745526344390671,0.0007376217488328521,9.095359478789103e-05,1.534036712555447e-05
2024-04-18 22:02:45.339,0.0009492708162954667,0.037964401796986826,-9.794010315561177,-0.00033852831924317887,0.00010162510134689017,0.00017626042971304525,0.004343236972801598,9.127828096771448e-06,6.875525344643193e-05
2024-04-18 22:02:45.374,0.001918346867856829,0.01299320085440111,-9.803205076639113,-0.000304412112652778,0.00010025656753236069,0.00017647969993381057,0.0013646377794543142,-5.4984592601818434e-05,8.892756997353806e-06
2024-04-18 22:02:45.402,0.002141806851929031,-0.0213461181240021,-9.815685077942964,-0.0004252530669008812,9.981652046290186e-05,0.0001770304239322026,-0.004833643701536487,-1.675797416662791e-05,2.153728296153933e-05
2024-04-18 22:02:45.431,0.0012293461500847813,-0.026155516874545617,-9.810862037954886,-0.0005637519057728041,9.843201398901465e-05,0.0001774376722703944,-0.0055399655297763955,-5.4408342470381126e-05,1.5706351366010995e-05
2024-04-18 22:02:45.468,0.0015612108595335703,0.03123810635645089,-9.803223889354227,-0.0005580261694461125,9.971124270473058e-05,0.00017868754743055945,0.00022903357079367842,5.11005914982178e-05,5.004607506068409e-05
2024-04-18 22:02:45.511,0.0007283907161404597,0.07459783965187164,-9.80938114199933,-0.00043207782296137624,0.00010147399657513197,0.00018013475045735192,0.0050379410904060435,6.958473482804762e-05,5.842058984217711e-05
2024-04-18 22:02:45.540,0.001524894953821682,0.05740173783328978,-9.82092674740845,-0.000355191541011227,0.00010474582446509815,0.0001803088005698927,0.003075474289428691,0.00013031653868815336,7.3203943837543225e-06
2024-04-18 22:02:45.569,0.001161896206505055,-0.0015133907445166932,-9.818000438885742,-0.0004455447452684278,0.00010678981810926273,0.00018144461087111753,-0.003614118498334585,8.239134033832094e-05,4.509059216084941e-05
2024-04-18 22:02:45.597,0.0017296905954650704,-0.007441850185711534,-9.792818408986797,-0.0004520378983429893,0.00010534348202743679,0.00018262161662162176,-0.0002597416013668055,-5.782757935353558e-05,4.702635798735257e-05
2024-04-18 22:02:45.628,0.002830919631522241,0.03286117360754185,-9.783463646698142,-0.0004065260349298073,0.00010404055650512303,0.00018357175839732665,0.0018204611920191822,-5.246499718381769e-05,3.817612791658085e-05
2024-04-18 22:02:45.657,0.001444165593129488,0.03569443427831526,-9.833702257351192,-0.00042448193122362956,0.00010341281519698312,0.0001843721996671375,-0.0007182438197154999,-2.499135987530654e-05,3.193232069327729e-05
2024-04-18 22:02:45.685,0.001233215781982416,0.013814219417841927,-9.837662240750367,-0.0004993155756244286,0.00010488886222461891,0.00018488425704709117,-0.0029933372959270194,5.9583702198681406e-05,2.0202520451086196e-05
2024-04-18 22:02:45.713,0.0005908895179380905,0.03430984225651882,-9.801887907184396,-0.00045243280560825817,0.00010764921745977321,0.0001859739376546204,0.0018753266823431695,0.00011004767758310151,4.383372796907939e-05
2024-04-18 22:02:45.741,0.0015342185701019565,0.046385343628182286,-9.78155862646225,-0.00037260354556144796,0.00010788582872438515,0.00018643062999313724,0.0031931703882048064,8.863682727293793e-06,1.861476390004007e-05
2024-04-18 22:02:45.770,0.0021613100667561805,0.04164538424912412,-9.80721535145493,-0.00031547622348112437,0.00010809165313146348,0.00018689775013724344,0.0022850924794802392,7.800999496659337e-06,1.8933809441185757e-05
2024-04-18 22:02:45.797,0.0013613249429055634,-0.004664319254889589,-9.842826982974842,-0.0003797784537342925,0.00010920454481958683,0.00018718293436828913,-0.0025720822339347113,4.499216395942807e-05,1.1146452193268556e-05
2024-04-18 22:02:45.826,0.001411558924958396,-0.014035444898593529,-9.815077762520904,-0.0005157627280844855,0.000108540882750438,0.00018718147894975694,-0.0054393763577818355,-2.5527944800998557e-05,-6.65318599874597e-07
2024-04-18 22:02:45.855,0.0018360742993653327,0.02342422628925597,-9.783452936489041,-0.0004858412028352208,0.00011087116991948677,0.00018781607617918256,0.001196875757226009,9.297505128731703e-05,2.5558977199941572e-05
2024-04-18 22:02:45.883,0.0006871638945436214,0.052782366713921586,-9.801084641501944,-0.00038210675959257607,0.0001134609581084848,0.00018875966321152846,0.004149393187738419,0.0001027976257851668,3.824285316152273e-05
2024-04-18 22:02:45.911,0.001397030896024679,0.03251017942801663,-9.833994040699958,-0.0003714226281334094,0.00011653126719391452,0.00018893926364065914,0.0004273876170081247,0.0001227289983480388,7.278094380121212e-06
2024-04-18 22:02:45.940,0.0014290869959198615,-0.004485213654119618,-9.82636753363093,-0.0004475638510239471,0.00011968036328858478,0.000189224108134818,-0.0030456266663265075,0.00012653434561604336,1.1095524493505149e-05
2024-04-18 22:02:45.970,0.0016031759776303604,-0.0048335113638811,-9.790959768612918,-0.0004971325547590862,0.00011730112955239292,0.00019063434440632108,-0.001982772947247298,-9.482207078875349e-05,5.6125030331185374e-05
2024-04-18 22:02:45.998,0.0029559211117247976,0.029692477300468516,-9.784853459310227,-0.0004888549614753122,0.00011572337495156433,0.00019144226755107624,0.00033108799316465266,-6.318911192067675e-05,3.232487738949287e-05
2024-04-18 22:02:46.026,0.0011384896452396032,0.04184313402427885,-9.815298858489616,-0.0004538037112056066,0.00011623247560607347,0.0001928123771958252,0.0014020476540143783,2.007067220506515e-05,5.497575537492516e-05
2024-04-18 22:02:46.054,0.0005624194474791756,0.04512590371027255,-9.82168977995759,-0.00046528877917821577,0.00011814749253534174,0.0001932286627770498,-0.0004593899590711863,7.668152432133116e-05,1.6633708994346188e-05
2024-04-18 22:02:46.082,0.0014702291634591822,0.0427104775276239,-9.814309328301087,-0.0004329569893455471,0.0001207060339198143,0.0001936424928981058,0.001293289460327687,0.00010208451733778269,1.6750207979588982e-05
2024-04-18 22:02:46.113,0.0014763562698124316,0.03208544042024183,-9.823974779785877,-0.00032556803334240955,0.00011988119264303928,0.00019544957520307776,0.004295543382530881,-3.3849124003560865e-05,7.279082042131686e-05
2024-04-18 22:02:46.143,0.0023496499145875377,0.003073345182654176,-9.807080030291266,-0.00029572845957897057,0.00011926972951312783,0.00019621442570180676,0.0011935745467216328,-2.470089610840725e-05,3.072980795966626e-05
2024-04-18 22:02:46.172,0.0014418650832340408,-0.030545119629834215,-9.79085778879584,-0.0004193298788834617,0.0001194879591501326,0.00019660027276332306,-0.004944057093786608,9.693092001573845e-06,1.4848332363616701e-05
2024-04-18 22:02:46.202,0.0016133866695258754,-0.025063992044177284,-9.803888481111906,-0.0005578808801298191,0.00011724395815237225,0.0001974618610367179,-0.005542062257557372,-8.86892687793707e-05,3.375192477423024e-05
2024-04-18 22:02:46.237,0.002053638552525427,0.025448395236692713,-9.821329451270586,-0.0005712472180548233,0.0001164399566136847,0.00019890289208828984,-0.0005346666546882188,-3.2087372066231435e-05,5.756023741587398e-05
2024-04-18 22:02:46.268,0.0007631283359809329,0.07198998577259316,-9.82098868035672,-0.0004239454875138177,0.00011968636708893881,0.00019948968883960305,0.0058920928063848615,0.0001286742654331482,2.4212585068535182e-05
2024-04-18 22:02:46.298,0.0006951637214531454,0.059101753880413534,-9.811375103536873,-0.00035154820530520825,0.00012390019040856126,0.00020050138712930605,0.0028959200256839747,0.00016796088506888066,4.0873604602918776e-05
2024-04-18 22:02:46.326,0.0012038188739386562,-0.0019423042418248802,-9.803552273678438,-0.0004019104228173268,0.0001193310611298765,0.00020148156877120474,-0.0020145301078423454,-0.00018237689656583627,3.8884380106080484e-05
2024-04-18 22:02:46.355,0.0037975802471693614,-0.009788341493561942,-9.783114400749248,-0.00045333802209997074,0.00011792918539719077,0.0002015324840652345,-0.0020571156393676348,-5.566135990517364e-05,1.7659114375616593e-06
2024-04-18 22:02:46.384,0.0008601836658069881,0.018907260721414073,-9.818730223220548,-0.0004801191563701504,0.00011632767258479968,0.00020258496086045905,-0.001071263266788006,-6.386476275357197e-05,4.1942084755646084e-05
2024-04-18 22:02:46.413,0.0011399676820622769,0.03263973712402946,-9.836787170100822,-0.00044943764389404194,0.00011814654753514834,0.00020247250898782312,0.0012272758646597862,7.250832467240135e-05,-4.322717545361628e-06
2024-04-18 22:02:46.443,0.0007409538728137932,0.035462354888308234,-9.813592209952695,-0.0004201568676152489,0.00012110272692826574,0.0002025275322833344,0.0011712547978910985,0.00011800904082079066,2.388897554983244e-06
2024-04-18 22:02:46.483,0.0011251799412444624,0.016133745664257064,-9.794506337940858,-0.00043715908915629374,0.00012388228729156583,0.00020364212008219015,-0.0006800719203724084,0.00011130068691269324,4.454981616940063e-05
2024-04-18 22:02:46.521,0.0014254732723712402,0.00967109708193368,-9.803736116745936,-0.00041851773990751674,0.00012346790793378888,0.00020414849924346796,0.0007456481399645122,-1.6735533635757133e-05,2.0340538703255037e-05
2024-04-18 22:02:46.549,0.002482788029591464,0.017191406097659647,-9.809330943714942,-0.0003579743301515517,0.00012422855400057232,0.00020434207359633274,0.0024217417513229056,2.9928576885926848e-05,8.05271087499223e-06
2024-04-18 22:02:46.577,0.0011746780227473346,0.017726010877847156,-9.805299248480926,-0.0004154891041789996,0.00012106261467608137,0.000205538234216651,-0.0023006227370379042,-0.00012618720436341973,4.7508211275656516e-05
2024-04-18 22:02:46.607,0.00258850665415396,-0.0010411647468810882,-9.82424775041953,-0.0005110651356851091,0.00011838144801261591,0.0002059910662216603,-0.0038230657487144343,-0.00010646986789714507,1.7596077138467864e-05
2024-04-18 22:02:46.635,0.001097448198549378,0.025328889639444303,-9.816564991469669,-0.00044673308323232483,0.00012088049587822282,0.00020603979458992889,0.0025733026695110312,9.943083312254837e-05,2.2982023901131486e-06
2024-04-18 22:02:46.662,0.00018465676678850742,0.046251575517597045,-9.805456921385318,-0.00035441295289359847,0.00012381101601227013,0.00020580101976217264,0.003692830733323515,0.00011646317868859932,-9.06329158855068e-06
2024-04-18 22:02:46.690,0.0012634275688185503,0.008395080850800965,-9.808720741193035,-0.00036180020274184416,0.00012207798438098073,0.00020763540455881317,-0.0002955132307878049,-6.928697965328733e-05,7.331374313690589e-05
2024-04-18 22:02:46.718,0.002700261026331253,-0.020113349046005587,-9.81215434109804,-0.0005241148552452032,0.00011843963275902298,0.00020886425099015947,-0.0064926225978492345,-0.0001442112334980686,4.828578507932288e-05
2024-04-18 22:02:46.746,0.002164087856711081,-0.003531877578599256,-9.804470650825646,-0.000566974309999706,0.00011674679106297382,0.00020955274091692024,-0.00171439575362367,-6.737107773943101e-05,2.729835982416296e-05
2024-04-18 22:02:46.776,0.0010369120578600857,0.0521242273319916,-9.802171681159402,-0.000442046695351559,0.00011358834178066926,0.00021011165167527878,0.004997076075349584,-0.0001273952175357486,2.28835765394378e-05
2024-04-18 22:02:46.821,0.001713427910106421,0.049152583717891926,-9.812390151962733,-0.000363327571793152,0.00011171494683123284,0.00021089461163995035,0.0031487458669866245,-7.560887805019693e-05,3.1648617623693006e-05
2024-04-18 22:02:46.867,0.0009614133828482839,-0.010911001554799309,-9.819592441619173,-0.00040508061997276897,0.00011122064557292594,0.00021138719058126407,-0.0016701283652012869,-1.9427730115526782e-05,1.9508719061376926e-05
2024-04-18 22:02:46.913,0.0012104262872632695,-0.02499409956245303,-9.815002325395943,-0.0005140714440832829,0.00011048405050020423,0.0002116292928171202,-0.0043596406009036364,-2.8546930425948825e-05,9.184583925135692e-06
2024-04-18 22:02:46.951,0.0015124955743989915,0.006961480595640421,-9.787903726861728,-0.0005307533213314252,0.00011017703251357611,0.00021198166367793778,-0.0006672793147695235,-1.214694338899566e-05,1.4014667231052434e-05
2024-04-18 22:02:46.980,0.0013272936820916718,0.05149809531809612,-9.811190236014593,-0.00039075315549576365,0.00011069484182014667,0.00021278586363984972,0.005600007898246048,1.9512504659158255e-05,3.279270184129154e-05
2024-04-18 22:02:47.017,0.0012101386624196661,0.04647758475835381,-9.818472060615127,-0.00029077008030929137,0.000111160653058599,0.0002130556506885239,0.003999325889739686,1.7778204839737317e-05,1.1239399404902586e-05
2024-04-18 22:02:47.064,0.0014697641729463028,-0.0017063891490447832,-9.805955365203578,-0.0004263036203983045,0.00011178066709780472,0.00021370714042042512,-0.00542133943146674,2.5944795370965475e-05,2.5468091333436254e-05
2024-04-18 22:02:47.112,0.001474140695349412,-0.015661679510307704,-9.820445533057002,-0.0004642419710368385,0.00011318406648793607,0.00021449700017998557,-0.0015175257168798233,5.6445691768891863e-05,3.1450975264471854e-05
2024-04-18 22:02:47.160,0.0012589270254500615,0.0117728952183573,-9.819397888342577,-0.00041200220776801304,0.00011603616494025836,0.00021422260133192267,0.002089616408459785,0.00011364014620484671,-1.0692612204782263e-05
2024-04-18 22:02:47.208,0.001394404562509968,0.023387606987494668,-9.808501507869385,-0.0003713890985518475,0.00011715828678844917,0.0002148826795695596,0.0016245309626958563,4.4526988912830314e-05,2.6608180381590927e-05
2024-04-18 22:02:47.256,0.0017746072624712818,0.00892799074221749,-9.799999557621799,-0.0003869794593568341,0.00011930870245287063,0.00021596440770056105,-0.0006236011445421556,8.613390837762214e-05,4.322940283497362e-05
2024-04-18 22:02:47.303,0.0013067135602188417,-0.020777041199780615,-9.802122041668534,-0.0004505515038818759,0.00012330506997566135,0.0002161993296313068,-0.002542848570264791,0.00016039976688488473,9.165780227364156e-06
2024-04-18 22:02:47.340,0.0012525616144432408,0.0008402221168309918,-9.811390656623129,-0.0005500763632037789,0.00012687531072975175,0.00021723113515254654,-0.003980969122036476,0.00014364788730764685,4.086041474420427e-05
2024-04-18 22:02:47.370,0.0014628389452397634,0.02706706990143115,-9.815381839327072,-0.0005012899741219512,0.0001312651611389885,0.00021820592972013743,0.0019514887794230833,0.00017515041155336474,3.932719608659326e-05
2024-04-18 22:02:47.400,0.0014304242912862918,0.04786260133225688,-9.81450620988401,-0.0003860853656312755,0.00013750273657812256,0.0002184350039259274,0.004608237807609178,0.00024849372598127967,9.863867925548451e-06
2024-04-18 22:02:47.431,0.0014297976253080822,0.020379422708815608,-9.81395561200405,-0.0004041456181108052,0.00014371116717850808,0.00021881870404158655,-0.0007223581065101748,0.00024848883861145713,1.534910713390479e-05
2024-04-18 22:02:47.461,0.0015318507234957249,-0.025117053235851027,-9.807775914485964,-0.0004734173568823345,0.00014349932194534574,0.00022093230635182544,-0.0027708837177536274,-7.907309886410892e-06,8.414217534645994e-05
2024-04-18 22:02:47.491,0.0030378849863604905,-0.013010648582878174,-9.79812527102941,-0.0005162321397182717,0.00013852081137958293,0.00022208628189785654,-0.0017126418480515335,-0.0001987857217079551,4.581065494618686e-05
2024-04-18 22:02:47.521,0.0034011686215102326,0.02548934914452205,-9.802745841499382,-0.0004753172549094162,0.00013600233502586285,0.00022240948582566306,0.0016365714127478637,-0.00010110875433047759,1.3106806904581681e-05
2024-04-18 22:02:47.552,0.00045015890812887953,0.025919484366005097,-9.814717713230658,-0.000439059010222547,0.00013946198242763765,0.00022369007249607828,0.0014503535095261968,0.00013804074194717793,5.1481338875201186e-05
2024-04-18 22:02:47.585,-0.0002730758621863844,0.03432454755733018,-9.796978999259016,-0.0004560537545786339,0.00014174580874849215,0.00022366761833815494,-0.000679769262062611,9.150555779960333e-05,-9.512356965542012e-07
2024-04-18 22:02:47.620,0.001980615124070351,0.043396024383297135,-9.818917977842673,-0.00037161633912960034,0.00014291184405563676,0.00022538563971918394,0.0033774973916313998,4.586027842053528e-05,6.921668289852311e-05
2024-04-18 22:02:47.666,0.0019230938501717417,0.025396341583201736,-9.848000572763356,-0.00026020410534122716,0.00013920449492426813,0.0002256418185826914,0.004456454577171841,-0.00014930118294907466,1.0845242531318034e-05
2024-04-18 22:02:47.713,0.0029979583982227454,-0.02951363299751395,-9.810406062444013,-0.0003289617698412219,0.0001344851957682911,0.00022605980446515898,-0.0027503514432207464,-0.00018815672926321194,1.627470031318104e-05
2024-04-18 22:02:47.758,0.0014308524103172782,-0.039990085075767456,-9.773249832507464,-0.0004873648411421317,0.0001315992010201139,0.00022640840908278942,-0.006336151097691024,-0.00011401374441683942,1.3036615295478737e-05
2024-04-18 22:02:47.804,0.0009464739496901024,-0.019264732071786632,-9.794252645683581,-0.000532653184304412,0.00012809546061575008,0.00022725456868205322,-0.0018115699630567265,-0.00013975734244633007,3.353355572983138e-05
2024-04-18 22:02:47.849,0.0013119057089052478,0.039989815024065956,-9.83442971337967,-0.00045118482866448185,0.0001261491615708146,0.00022781562693251168,0.003258713990331422,-7.860281109090309e-05,2.282432532980574e-05
2024-04-18 22:02:47.899,0.0010905387619438477,0.05597118740930519,-9.835082291076708,-0.0003502928222764109,0.0001245961353934572,0.00022774207527651033,0.004035666663391896,-6.303955536972353e-05,-2.4550064436224197e-06
2024-04-18 22:02:47.947,0.0013115176957465334,0.005461376226580877,-9.804088622323684,-0.0003888420800050431,0.00012210777036766532,0.0002281120273821292,-0.0015419948353478862,-9.918909546758077e-05,1.4567397058110327e-05
2024-04-18 22:02:47.986,0.0014755625310865275,-0.025875007257767375,-9.786554519911967,-0.0004707686765993001,0.00012008488244597135,0.00022884121490956183,-0.0032770860182651886,-8.018149431207949e-05,2.8729631232192634e-05
2024-04-18 22:02:48.017,0.0013685058125076034,-0.012182401009146169,-9.800712857547817,-0.000519100551279767,0.00011914919159609846,0.00022904543193058826,-0.0019332846970067986,-3.698932927500351e-05,7.917333411422957e-06
2024-04-18 22:02:48.063,0.001211524642750953,0.023536889758187924,-9.820770192091093,-0.0005249828140836177,0.00011785571496414327,0.0002294595050918905,-0.00023530433788460103,-5.1693844942517166e-05,1.65077547218924e-05
2024-04-18 22:02:48.108,0.0012526561063197392,0.026667904223627713,-9.820822066756035,-0.00046744571830722206,0.00011771168346250821,0.00022969419038005413,0.002301481610554913,-6.293863519389898e-06,9.655728816059336e-06
2024-04-18 22:02:48.146,0.0014232892573728731,0.031342776913474896,-9.80829512679665,-0.0004091151554551533,0.00011864826211615149,0.0002301517658194607,0.002333229090184863,3.691962271894444e-05,1.8592788084385816e-05
2024-04-18 22:02:48.175,0.0012112132133057468,-0.0020892103665510857,-9.806508198257612,-0.00044446813146155285,0.00011817903399825643,0.0002305139458091914,-0.0014141251541982636,-1.845002167211225e-05,1.4311223295138387e-05
2024-04-18 22:02:48.204,0.0016461887653617285,-0.015503350496467668,-9.81095014106626,-0.0005302913510030339,0.00011886708722945727,0.00023148997671072405,-0.003432927377680572,2.8292993149743054e-05,3.865058024736415e-05
2024-04-18 22:02:48.235,0.0013644645241513032,0.011375832997062841,-9.798328485605538,-0.00045271964790949144,0.00012010842107989481,0.00023210765608908733,0.0031028769147592285,4.892372765008057e-05,2.509818509121544e-05
2024-04-18 22:02:48.278,0.0014578408798713261,0.0348011095252758,-9.796759393406354,-0.000401731605997291,0.00012282752920585708,0.00023279884794462057,0.0020395436329963173,0.00010827972720709294,2.7936155239275544e-05
2024-04-18 22:02:48.325,0.00120658580680107,0.03242699418163525,-9.814606513320532,-0.00038423019352112734,0.0001257337368403535,0.00023332225275677078,0.0007000809508963911,0.00011607724620790718,2.106678577065506e-05
2024-04-18 22:02:48.371,0.001359096262482405,-0.0032078369099271414,-9.836846681610512,-0.00040437283613644357,0.00012934432809624815,0.00023372520788358337,-0.0008056741349538465,0.00014460514944656712,1.6075382774024948e-05
2024-04-18 22:02:48.417,0.0015406247094164566,-0.0041254221601356705,-9.824729244167738,-0.0004183649998108562,0.000133216234959159,0.00023360407690507153,-0.0005596497381373925,0.00015500912864108588,-4.852776023620674e-06
2024-04-18 22:02:48.458,0.001472065364962744,-0.004156217831173926,-9.796564560732998,-0.0004565231675745404,0.0001350171711674705,0.00023429172306398515,-0.0015263136936723171,7.23815361590224e-05,2.7335571080929326e-05
2024-04-18 22:02:48.500,0.0018538349906387535,0.010619690915880038,-9.791365545839403,-0.00044137244043085443,0.00013873602424857912,0.00023437644520592522,0.0006060634961801402,0.0001486105873205326,3.5363087624542144e-06
2024-04-18 22:02:48.546,0.0012898341323213593,0.02175595005957554,-9.809498116109145,-0.0004260950004552208,0.0001432902280752707,0.00023464184501913678,0.000611138795473171,0.0001820203479127099,1.0778339845077719e-05
2024-04-18 22:02:48.574,0.0015246359297429201,0.009274397066887003,-9.820313192125434,-0.0004735812395444244,0.00014758594159643696,0.00023546201540149348,-0.0018994142212822454,0.00017225880880470182,3.261624176679419e-05
2024-04-18 22:02:48.603,0.001485176043104881,-0.0018678908895265215,-9.813698846382424,-0.0004911422527669398,0.000153664143960841,0.00023615720177041596,-0.0007023876297474655,0.00024327985474792706,2.7823282994821927e-05
2024-04-18 22:02:48.635,0.0012776956926005552,0.022061366551376697,-9.806454088418597,-0.0004466586252071338,0.00016015370896000202,0.00023654980164156486,0.0017794039906279832,0.00025915523508628584,1.609319078426009e-05
2024-04-18 22:02:48.669,0.0016079795305130363,0.009189562997639096,-9.810860454706583,-0.0004538074290514999,0.0001634736164566051,0.0002382626197978217,-0.000285931975150816,0.00013283285814025665,6.852722385165983e-05
2024-04-18 22:02:48.698,0.002112250435575182,0.009269149828403824,-9.811320993697857,-0.0004737526018450219,0.00015596168869872756,0.00023908299692864085,-0.0007978836585977662,-0.0003003024662628722,3.2542389794817607e-05
2024-04-18 22:02:48.726,0.005094156969301136,0.0196368912606731,-9.786184226073889,-0.0003854632395846472,0.00015056385089572987,0.00024023448463437688,0.003531516131456656,-0.00021677577247619385,4.6526772770189495e-05
2024-04-18 22:02:48.754,0.0007180263651223787,0.01129310399867694,-9.815389755568582,-0.0003615357461672329,0.00015076748059536713,0.00024064431192762122,0.0009570992482964378,7.909282476243805e-06,1.6540060264759496e-05
2024-04-18 22:02:48.782,-0.0002461285017909041,-0.016738119917016254,-9.834108686503448,-0.0004847273039945546,0.00015414480852583138,0.00024154183261671048,-0.004927635592534402,0.00013626191793959048,3.522402881735731e-05
2024-04-18 22:02:48.810,0.00047774873164319184,-0.0009073717616169389,-9.801884461291035,-0.000564031290713135,0.00015677421130631095,0.00024131798477632793,-0.003172132972888677,0.00010594764700111964,-9.383095194314355e-06
2024-04-18 22:02:48.838,0.0016833119726386173,0.05794427952325163,-9.792494308746225,-0.00042273103687191365,0.00015619357687133428,0.00024320419180528236,0.005651993217928482,-2.4621510187078365e-05,7.632406600013828e-05
2024-04-18 22:02:48.866,0.002606589738546479,0.05889168553443652,-9.831956213871234,-0.00024208801621929466,0.0001524746641057438,0.0002440070356952374,0.007225679870538647,-0.00015052177376166916,3.3206081837562335e-05
2024-04-18 22:02:48.894,0.0023517473570630917,-0.013031596171856947,-9.82644110811083,-0.00028927623554560915,0.00014838804437675816,0.00024475500118281745,-0.0018875730853733532,-0.0001630127726280808,2.958366992516642e-05
2024-04-18 22:02:48.921,0.0013597911938507102,-0.07817149363979471,-9.790786542622266,-0.0004988312789705693,0.00014587724781544155,0.00024509095573885904,-0.008382228601867346,-9.838621457923622e-05,1.2145498551904056e-05
2024-04-18 22:02:48.949,0.0011120608815406126,-0.03435475510791072,-9.78673305444104,-0.0005793236025512769,0.00014270167901619485,0.0002460075993781861,-0.0032197296431401134,-0.00012625455962918613,3.612295724137412e-05
2024-04-18 22:02:48.976,0.0013262107411173658,0.04728757233392919,-9.817788656142335,-0.000476896746161848,0.00014194099143373325,0.00024661391809078435,0.004097063735273141,-3.144722476826986e-05,2.482246473600058e-05
2024-04-18 22:02:49.004,0.0008984904666951786,0.05552070047132196,-9.836193079458692,-0.0003484003308715308,0.0001415892500608059,0.00024675720933071407,0.0051398525641015574,-1.5339418024590766e-05,6.455943195856728e-06
2024-04-18 22:02:49.035,0.0014008188844342245,0.004512539966833277,-9.817693009318464,-0.000391483307738915,0.0001407256644029922,0.00024696561794558904,-0.0017233288193163707,-3.412134403028945e-05,8.078991924451966e-06
2024-04-18 22:02:49.078,0.0013462255523743049,-0.029184674327425063,-9.789493401288833,-0.00048674271480167106,0.00014053416369070551,0.000247231776860639,-0.0038103798862674453,-6.723890663747071e-06,1.0106911983300663e-05
2024-04-18 22:02:49.124,0.0014781124471547223,-0.013425967516779812,-9.78995952821529,-0.0005320645850841224,0.00014084680831540517,0.000247870338244708,-0.0018128754832377706,1.2940535189710669e-05,2.5294584387015455e-05
2024-04-18 22:02:49.170,0.0012937429073059052,0.013558998982166337,-9.815180114866992,-0.0005359388856595079,0.000142003874396789,0.0002488129524886377,-0.00015496592939944748,4.630085433710556e-05,3.7707564761225805e-05
2024-04-18 22:02:49.205,0.001234902559197916,0.0420474265448458,-9.82810510207586,-0.0005076154808186515,0.0001423417925580545,0.0002495100361917716,0.001132935690971075,1.3220602803467919e-05,2.80509491272226e-05
2024-04-18 22:02:49.250,0.0015540333777991336,0.031754882858543165,-9.812187961841387,-0.00040076675310022367,0.0001444320451184993,0.00024982560682571046,0.004273968405028069,8.253843105444797e-05,1.3264326911077839e-05
2024-04-18 22:02:49.296,0.001402671616003206,0.02595473601517357,-9.787738044583573,-0.000347871339161388,0.0001468532306648207,0.00024997690760095653,0.0021158399171495768,9.631662550245237e-05,6.391146498223561e-06
2024-04-18 22:02:49.342,0.0014002243193542063,-0.019414646816212085,-9.821752085434872,-0.00041038170143833057,0.00014851595802095233,0.00025140627794002757,-0.0025004064404343163,6.711083394377394e-05,5.6835188592140284e-05
2024-04-18 22:02:49.387,0.0014254619889531323,-0.039294418500401926,-9.827227051194217,-0.00046448038303829967,0.00015299274365992733,0.00025210457498507486,-0.002163906646026466,0.00017960261776122293,2.7693947848028453e-05
2024-04-18 22:02:49.432,0.0011140805650650296,-0.002814465236058247,-9.798223339291857,-0.0005064122107503113,0.00015815675459009915,0.00025319292134030425,-0.0016772280633554728,0.0002069613458583511,4.33820744941336e-05
2024-04-18 22:02:49.468,0.001579406311991156,0.023458178543405744,-9.792968258781935,-0.0005095414834906075,0.00016314823062079962,0.00025393001939163975,-0.00012512519863011498,0.00019967569192723896,2.9565880835865858e-05
2024-04-18 22:02:49.506,0.0015936847755905603,0.023445091642864586,-9.816072694380109,-0.00047796220443912976,0.00016860448824660215,0.00025477287001187266,0.0012632209703155684,0.00021791331115216103,3.4024281818177266e-05
2024-04-18 22:02:49.552,0.0013476998318471705,0.030334856879373942,-9.829305669949772,-0.00042230637640362653,0.00017513058994172238,0.00025556391820217233,0.0022262941808743985,0.0002604633468504358,3.2127306143430674e-05
2024-04-18 22:02:49.583,0.0016587412695788734,0.006859760325601998,-9.816968626654335,-0.00045299534025347864,0.00016918130896490639,0.0002580351947717844,-0.0012276361493330857,-0.00023770216487350917,9.852840747151908e-05
2024-04-18 22:02:49.617,0.004960163485939504,-0.004601704458473783,-9.785663430514898,-0.00044609607739174947,0.0001608645451059588,0.0002582678656628198,0.0002758832143282378,-0.00033274589684165396,9.205074503182643e-06
2024-04-18 22:02:49.652,0.0020534139414508084,0.01809136106676011,-9.783003293971376,-0.00043477864745039796,0.0001569381480609267,0.00025897360587606467,0.00045265223580808357,-0.00015718508457969615,2.8234088032107355e-05
2024-04-18 22:02:49.698,0.00011038605167432146,0.008753511376977824,-9.83677124448555,-0.0004644766564255273,0.0001594722746775779,0.0002592866722050713,-0.001187896178929968,0.00010166696501320205,1.2383455314411555e-05
2024-04-18 22:02:49.744,-0.0006027541756082118,-0.0033072971084763736,-9.839663466603646,-0.0004941560379098979,0.00016062306697312156,0.00025876495323362873,-0.001187160053934337,4.63499118784518e-05,-2.1035172871454318e-05
2024-04-18 22:02:49.790,0.0019211462583098708,0.017573438555923297,-9.801135212315344,-0.0004898607498527212,0.00016210646531023655,0.0002589119126219388,0.0001718259306913438,5.928857355244356e-05,5.9350189599191135e-06
2024-04-18 22:02:49.836,0.0012506876120679318,0.04026106996425904,-9.769823869447208,-0.0003782212963465566,0.00015838803170058647,0.000261281545510443,0.004465524837093307,-0.0001499296014418182,9.545257507799707e-05
2024-04-18 22:02:49.881,0.0030712003214008604,0.024850939990128162,-9.820886048613872,-0.0002740882434483003,0.00015429367161046639,0.0002615783398314037,0.004165277533367083,-0.0001648661156079566,1.248637269472805e-05
2024-04-18 22:02:49.926,0.0016056620016987905,-0.034245500341115065,-9.84635446019091,-0.0003413260238825729,0.0001502812341473042,0.00026206036781371904,-0.0026895560983550663,-0.00015980039248142017,1.8811619285442263e-05
2024-04-18 22:02:49.967,0.0012639131764384714,-0.062334856870278996,-9.806036110866962,-0.0005215778932379229,0.00014875117589817927,0.000262709799423406,-0.007210095030997411,-5.932573090240664e-05,2.486295421157875e-05
2024-04-18 22:02:50.005,0.0007741785823957778,-0.01189550601226901,-9.778127727392581,-0.0005778297932865588,0.00014582314560149189,0.00026353021491340694,-0.002250111791130375,-0.00011654883089803181,3.2414590884547866e-05
2024-04-18 22:02:50.035,0.00166842017994752,0.04929067765792174,-9.806011430819908,-0.0004986561881143519,0.00014413746382386622,0.0002638403991067677,0.003166924970079486,-6.826824515429147e-05,1.2835171507040966e-05
2024-04-18 22:02:50.074,0.00112206834969684,0.057284152929598715,-9.839524327017608,-0.0003656931465825502,0.00014329216585511311,0.0002640689084722222,0.005318511693022786,-3.521872821005634e-05,9.894186546841795e-06
2024-04-18 22:02:50.120,0.00128706612511838,0.014146036970703213,-9.826281013767858,-0.0003607757422188842,0.00014134771609515025,0.00026492268319560784,0.00019667081353236972,-7.784225443177611e-05,3.415109058168478e-05
2024-04-18 22:02:50.166,0.001567160080100286,-0.04047678847759034,-9.787290730372233,-0.0004764161815407377,0.00014101294242447495,0.00026595181081978794,-0.004625627129260707,-1.218477491177174e-05,4.050555539382902e-05
2024-04-18 22:02:50.200,0.0009274422225782995,-0.026975959182170762,-9.782630299297958,-0.0005844571172714991,0.00014276902656486224,0.00026657748811803264,-0.004321622742875744,7.137846184800432e-05,2.4459472213082263e-05
2024-04-18 22:02:50.245,0.0019445648220626451,0.039486702974360396,-9.799030702793443,-0.0004804134451630698,0.00014437949242515413,0.00026747413090950293,0.004161759269137652,6.329171373831266e-05,3.649035176957153e-05
2024-04-18 22:02:50.293,0.0027965857761511003,0.06960866341137914,-9.845087302756074,-0.00032310188471021737,0.00014751793358764925,0.0002678707587300543,0.006292493866365111,0.00012384921829059075,1.68137698085194e-05
2024-04-18 22:02:50.339,0.0024685372618807695,0.00922720875507207,-9.841455889945617,-0.0003337077850868415,0.00014989261643414878,0.0002682927341168295,-0.00042421310982266355,9.5095335870627e-05,1.6848172794649424e-05
2024-04-18 22:02:50.385,0.0029174136194715095,-0.03759341984661772,-9.794507269263388,-0.0005060918644992164,0.00015208941524435176,0.0002685419466822477,-0.006895341411563379,8.971748226270122e-05,8.980508150081126e-06
2024-04-18 22:02:50.433,0.0028134688391850465,-0.019893005388537572,-9.77813257026974,-0.0005849823118478251,0.00015563961011246815,0.00026887744389782593,-0.0031555821794419427,0.00014284763256817916,1.3023557534326926e-05
2024-04-18 22:02:50.480,0.002647676512176751,0.04163539398462779,-9.805876016523989,-0.0004578419144417387,0.00015967111212227884,0.00026908564124092263,0.005085658355716191,0.0001598885276084462,9.19271553591887e-06
2024-04-18 22:02:50.528,0.0027791239789285364,0.07266135037783318,-9.812528732755254,-0.0003341473684785357,0.0001629745260786053,0.0002698257486042145,0.004947812703606164,0.00013079506468679532,3.0438107623461615e-05
2024-04-18 22:02:50.569,0.0028552346074213596,0.017449679843328268,-9.830819907251918,-0.0004191510548555271,0.000167899699093972,0.0002701774174003191,-0.003400096742807531,0.0001979187064939717,1.3595621276891658e-05
2024-04-18 22:02:50.597,0.0026395579763190875,-0.02470227003409368,-9.823251235312025,-0.00044741110223424255,0.00017326581760391158,0.0002708267202724019,-0.0011303484700165849,0.00021493859186325965,2.5878503736124907e-05
2024-04-18 22:02:50.626,0.0027237630617984883,-0.00018604313507610942,-9.801825322310355,-0.0004499405735170288,0.00017870549792958385,0.0002704727589368384,-0.00010111741348639558,0.00021762096601551673,-1.4078059416436086e-05
2024-04-18 22:02:50.664,0.002799431675887245,0.012873902167187529,-9.797394648504325,-0.0004403479522185683,0.00018276509008436417,0.0002712852514917119,0.0003837428327118122,0.0001622655460110399,3.263973779001074e-05
2024-04-18 22:02:50.711,0.0032129134362629055,0.012886206538524448,-9.807989653006686,-0.0004381500307338964,0.00018918399821816201,0.0002716737002371571,8.798355414196102e-05,0.0002567256309729678,1.5666516666346603e-05
2024-04-18 22:02:50.757,0.002379061516654375,0.002752630484789393,-9.814028255161418,-0.00048362839418896673,0.0001946714165219314,0.00027139396443354445,-0.0018190728378379823,0.00021999649862534834,-1.1427165977135186e-05
2024-04-18 22:02:50.803,0.003211109840142853,0.0109323975303291,-9.811561833704214,-0.000531468561685564,0.0002007377559741062,0.00027220374246955686,-0.0019135475136188354,0.000243155874713274,3.2147856774561165e-05
2024-04-18 22:02:50.837,0.002489149669037622,0.017333386899537076,-9.808840323005937,-0.0004946701512251922,0.0002077152576886214,0.00027261187022854767,0.001472009073681718,0.00027869114795839935,1.675846851643942e-05
2024-04-18 22:02:50.869,0.0028243493056845015,0.03531558664297227,-9.812968503254098,-0.0004290714973544029,0.00021449546897478288,0.00027308284911475313,0.002624016139866173,0.0002704848053350734,1.9500287168576268e-05
2024-04-18 22:02:50.915,0.003028734515125842,0.011596980306748538,-9.816682338108496,-0.0004480183203260036,0.00021609959746888711,0.00027398532737846166,-0.0007578632347909762,6.435599793822983e-05,3.596541273821102e-05
2024-04-18 22:02:50.961,0.004048824019768485,-0.011188558087895893,-9.80615653087014,-0.0005300939288026526,0.00020764498260730923,0.0002745975613575385,-0.0032831222544837993,-0.00033729761645686246,2.360111954493127e-05
2024-04-18 22:02:51.006,0.0057267943029036305,0.0028191734625320213,-9.795673191939171,-0.0005328245663583514,0.00020123489267734386,0.0002763936168364556,-0.00010931035985786944,-0.0002564118266636072,7.168291295864874e-05
2024-04-18 22:02:51.052,0.0017195119632562703,0.025769715515891564,-9.805288258875066,-0.0004927367259655298,0.00020310342100700158,0.00027572833796517764,0.00160353979062216,7.431088011724411e-05,-2.6251846867558342e-05
2024-04-18 22:02:51.087,0.0006262136779893052,0.027535091578108566,-9.816433488728377,-0.00050036981420313,0.00020595033013331553,0.00027585419438130794,-0.000305293199265712,0.00011395804776043705,5.029272926160915e-06
2024-04-18 22:02:51.134,0.0021627507745074614,0.03420409212933508,-9.807882178386683,-0.0004687049096107012,0.00020882191661726192,0.0002760072301784977,0.0012666266510528207,0.00011451106203908676,6.435972544434114e-06
2024-04-18 22:02:51.175,0.0030300426412932695,0.03523153332941402,-9.818773064056947,-0.00036943705771009513,0.00020464352151733508,0.0002782548104534751,0.0039706496700321605,-0.0001682652093259095,9.067027205448094e-05
2024-04-18 22:02:51.204,0.004618978263150419,0.020691255503534078,-9.81622077466244,-0.0003041476054184158,0.00020069328012418432,0.0002782441773120609,0.0026115342166884055,-0.00015873634549291632,6.085226266351404e-08
2024-04-18 22:02:51.235,0.0028564096972576044,-0.018137607733280287,-9.814619644968209,-0.00037149339626279924,0.00019548965641061992,0.0002787512472634203,-0.002693893502459701,-0.0002074027020334217,1.966513056358314e-05
2024-04-18 22:02:51.280,0.0025956068743171515,-0.035923410472547226,-9.799504094035637,-0.0005142353724790985,0.00019256682779172682,0.00027964833036979735,-0.005709718782232121,-0.00011533934382190328,3.470794183959947e-05
2024-04-18 22:02:51.316,0.0022040169686965033,-0.007317724105486537,-9.801789280128428,-0.0005316436502877449,0.00018888519142538538,0.0002805539809817396,-0.0006963791842448311,-0.00014708988790050517,3.601373428162814e-05
2024-04-18 22:02:51.352,0.002747454078887093,0.04953916651435663,-9.818623959319831,-0.0004474148250878834,0.00018741288336055994,0.0002813073867209944,0.0033691310526209562,-5.985128448825407e-05,3.074587479785036e-05
2024-04-18 22:02:51.399,0.002073731063047916,0.048267393121280894,-9.824360533577961,-0.00037311764520919376,0.00018599892308501464,0.00028162579126658906,0.0029718690011079807,-5.739935822984545e-05,1.327176436868281e-05
2024-04-18 22:02:51.445,0.002754195230559079,-0.003606922302089597,-9.810250065920174,-0.00040952490340090034,0.0001844286232197873,0.0002823368811963604,-0.0014563132910003782,-6.241339004610338e-05,2.814717605189748e-05
2024-04-18 22:02:51.492,0.002579465276803608,-0.022967990679962583,-9.7936140378245,-0.0004913844173465319,0.00018431834197847396,0.0002829262524153902,-0.0032743862984692803,-3.498032290382473e-06,2.2969281245475706e-05
2024-04-18 22:02:51.540,0.0025441547605933573,0.000725629081084432,-9.798548463987213,-0.0005331225583193759,0.00018501854701878192,0.0002836452854924908,-0.0016695231666889905,2.8465388280596754e-05,2.84687904164882e-05
2024-04-18 22:02:51.579,0.002490866655686641,0.015549329745978687,-9.81613434793162,-0.0005360357662891342,0.00018497386879112886,0.00028432441071013536,-0.00011653386443627995,-1.7686245042716062e-06,2.714250523975083e-05
2024-04-18 22:02:51.607,0.002807440776800115,0.03980035239370991,-9.823494496756961,-0.00047067183549882234,0.00018682787621296677,0.00028509948406681634,0.002614572693777571,7.340210209018617e-05,3.1521139801661884e-05
2024-04-18 22:02:51.638,0.0025899026375054064,0.032624132560374434,-9.814584347844308,-0.00042999164467708283,0.0001881879923198259,0.000285677648888671,0.0016272188539655577,5.393065438623772e-05,2.3453805417929915e-05
2024-04-18 22:02:51.677,0.002825527101267355,0.000588879192261059,-9.803094714919263,-0.00044706464714200844,0.00018976838710150912,0.0002854253455737543,-0.0006829001534936674,6.341544834674386e-05,-1.0192295370174662e-05
2024-04-18 22:02:51.725,0.0029427083712289443,-0.011154839210075512,-9.803151525593616,-0.0005039014184395395,0.00019232501927262242,0.0002861314427432758,-0.0022734472303859686,0.00010290017682045068,2.786433351938095e-05
2024-04-18 22:02:51.773,0.0024824993005645017,-0.007500072128610766,-9.807606320653182,-0.0005692541689202026,0.00019689464845212937,0.0002870960788517111,-0.002614065559740207,0.00018351145245697661,3.8187191638466874e-05
2024-04-18 22:02:51.832,0.002247033701360953,0.036348738378113456,-9.803233016315025,-0.00048524516710555556,0.00020076358946909204,0.00028771943717357146,0.0033603997376413877,0.00015378048180820792,2.567064389357585e-05
2024-04-18 22:02:51.892,0.0032120768376012157,0.06220009500035507,-9.783089161908675,-0.0003464967206770266,0.00020569315228057984,0.0002882180431477829,0.005549990603656815,0.0001955784532517672,2.112635554798247e-05
2024-04-18 22:02:51.939,0.0026584708154259898,0.02908937549894877,-9.846142770579755,-0.00032019615298961747,0.00021133905184947375,0.00028875982502106495,0.0010520831901190896,0.00022552575059775292,2.1959900077476006e-05
2024-04-18 22:02:51.970,0.0026861968965168244,-0.028476280113277196,-9.85334953058434,-0.00041530282436478384,0.000217307263035596,0.0002888853274735131,-0.0038041990386720494,0.00023982522935908662,4.315775064875088e-06
2024-04-18 22:02:52.010,0.00281936877650995,-0.02315932960348361,-9.793904144792714,-0.0005137510498403408,0.00021948992374320615,0.000290120073108364,-0.003937914820662712,8.841913588886302e-05,4.857957893748212e-05
2024-04-18 22:02:52.049,0.0037546528837238,0.005539017625533546,-9.764457402762652,-0.000545490611324902,0.00021379605614499754,0.00029194303899497,-0.0012696642078749401,-0.00022742594994537698,7.251591933138723e-05
2024-04-18 22:02:52.083,0.005169526120904873,0.058408852555345295,-9.803323447732724,-0.0004159212224644455,0.0002138939365479449,0.0002914202128928975,0.005182781435753252,2.4104481673167613e-06,-1.9803888282881858e-05
2024-04-18 22:02:52.113,0.0012409678824421401,0.025108681428468317,-9.845134241411605,-0.0004136302184925166,0.00021483657720826915,0.0002913754570530859,9.165153038264811e-05,3.767964895546367e-05,-1.7550446844874713e-06
2024-04-18 22:02:52.146,0.0020706565504606555,-0.002901944706944814,-9.827890432232607,-0.000448394545011385,0.00022181249020189857,0.00029194309938248696,-0.0013904968578664742,0.00027943162485962803,2.2532269777278994e-05
2024-04-18 22:02:52.179,0.0011688846327216824,-0.004412269090220124,-9.791856166548408,-0.009580341204694965,0.0002220677494528587,0.00033509420358062423,-0.36528408817772406,0.00010145111026616087,0.0016465552749507127
2024-04-18 22:02:52.209,-0.005051399181134665,-0.42160157134483556,-9.70098861050753,-0.004234909890825116,0.00021955316436386975,0.0006575499823462274,0.2138197167511753,-0.0002269295845115288,0.012945061887357277
2024-04-18 22:02:52.239,-0.06695117804478438,3.0074494692498397,-9.869095028076464,0.0022776313710600542,0.00022391192607585576,0.0010144037920536307,0.26049910679889315,3.5888960143380484e-05,0.01433186402066075
2024-04-18 22:02:52.277,0.02902258018759746,1.0504141071061655,-9.902994702521031,-0.003380470201803243,0.00022505231062748454,0.001319346571199832,-0.22632701123886945,0.00023427773265723666,0.012148553671688498
2024-04-18 22:02:52.326,0.042279359870010656,-0.384377472006482,-9.729600142492346,-0.007133171503646676,0.00022839870058051368,0.0014831640253326769,-0.15011145760754013,0.0002854560103659714,0.006521495647128058
2024-04-18 22:02:52.369,0.08955685919887749,1.3381534770053556,-9.674749808933361,-0.0024586806762238182,0.000246158477314343,0.0015065954465882097,0.1869825610708856,0.0004307542486535219,0.000981674635404951
2024-04-18 22:02:52.402,0.0520134666509409,1.8725962958392584,-9.826582482870942,-0.00019873682316914578,0.0002536852725690282,0.0015074426036903541,0.09039819253519259,0.00016489256699026488,5.63252787220494e-05
2024-04-18 22:02:52.434,0.0030879780194786105,0.1760482297013889,-9.933654771543672,-0.0023869612205849947,0.00023441244551043462,0.0015098675479836285,-0.08753014979114146,-0.0006391200128694653,7.341177796023331e-05
2024-04-18 22:02:52.465,-0.005524418167163081,-0.5197212377043599,-9.818463958109113,-0.0038400556908165366,0.00022581576939971698,0.0015143971270182325,-0.05812455886322958,-0.00025673887993005667,0.00016663733945064692
2024-04-18 22:02:52.502,-0.011391101002219458,0.19284840921380664,-9.688796853526831,-0.0032354295804560393,0.00022374876806516305,0.0015239572644764295,0.024184955226215086,-0.00012055849724816889,0.00038749034050812646
2024-04-18 22:02:52.551,-0.0102494576501452,0.6704001369044119,-9.747214245509424,-0.0029439891095553485,0.00023036131727729067,0.0015283914959914528,0.01165802191391698,0.00024620538383729755,0.00018070614101227595
2024-04-18 22:02:52.596,-0.006004317707657276,0.427260142247875,-9.900028905923037,-0.0039985813113473665,0.0002323327348169107,0.001523110895828614,-0.04218372292225961,0.0001442174010118989,-0.00022033286562063683
2024-04-18 22:02:52.626,-0.006652024424151638,0.3557843743870006,-9.885311681636706,-0.003695152941962934,0.00023903978691483985,0.0015003017433998947,0.012137841834157713,0.0002531547311654843,-0.0009086150987414525
2024-04-18 22:02:52.670,-0.003436270817968937,0.5111664290824087,-9.763467872574124,-0.003257531757614025,0.0002433279359799445,0.0014668731401194153,0.01750552222875277,0.00014960485461594703,-0.0013324751027682434
2024-04-18 22:02:52.717,-0.002830389555297857,0.33556895366495787,-9.732498604471397,-0.0030921027161074266,0.0002445502330750363,0.0014336367648245807,0.006617590595988198,4.329054066464324e-05,-0.0013277178889709563
2024-04-18 22:02:52.779,-0.0054919451606007495,0.004921672864812132,-9.826190861746916,-0.001711483970253801,0.0002453743838944748,0.0014090032168770075,0.05522514656961145,-4.4534210995099855e-05,-0.0009718605990560026
2024-04-18 22:02:52.845,-0.00787330813075128,-0.43317317738725614,-9.883213132579002,-0.0007069036632724541,0.0002375598795959477,0.0014108805288274662,0.04018274412791887,-0.00036925318399419943,8.471980931836122e-05
2024-04-18 22:02:52.887,-0.00934381434902083,-1.082342648692918,-9.82047030623631,-0.002843599926294753,0.0002322598578313533,0.0014140631168389317,-0.08546824317760987,-9.169814593066464e-05,0.00010686832671818185
2024-04-18 22:02:52.918,-0.003664603294618935,-0.9721937243995444,-9.7375155458103,-0.004321106022208203,0.0002289428213895424,0.0014227499126076228,-0.05910083697804338,-5.054104353433785e-05,0.0003335918891317537
2024-04-18 22:02:52.949,-0.0028914694146314115,-0.14914350341417018,-9.775798210347343,-0.0027333875017022656,0.00023147547633759234,0.0014286562817256822,0.06350916504934366,1.0274373211180214e-05,0.00025089574054931897
2024-04-18 22:02:52.994,-0.0007985797499668216,0.11381866684672234,-9.869366974255335,-0.0025705026065335583,0.00023297726748058734,0.001430278841913259,0.006515482323713376,5.059255841148973e-05,6.654167788171238e-05
2024-04-18 22:02:53.041,0.0017698951081174508,-0.34796570637612506,-9.860120524776963,-0.004558868688328346,0.0002360335192689699,0.001434192754285221,-0.07953494128526684,0.00023539359521315622,0.00013921449068403504
2024-04-18 22:02:53.082,0.0005550718127944307,-0.24912947245817343,-9.772781656671443,-0.004114759052429984,0.00023845206745147458,0.0014282579617761807,0.017764730519775476,7.222381819219049e-05,-0.00023289800436146062
2024-04-18 22:02:53.115,-0.0013339631265047135,0.17007965718017656,-9.766180721972866,-0.002484675499912572,0.00024266597786886692,0.0014108270424298495,0.06520404816556138,7.713436451834564e-05,-0.0006814239929067737
2024-04-18 22:02:53.161,0.003990609589792512,-0.1670308389993638,-9.834927225875399,-0.0035239644649938985,0.00024290464560512546,0.0013891878889443646,-0.04157147742254269,7.128742256168974e-05,-0.0008753787490409705
2024-04-18 22:02:53.196,0.0018104748896346423,-0.5317347388251483,-9.849079975576066,-0.0044231603083571954,0.00024301888718378174,0.0013644915931358343,-0.03596783058615686,5.894715718716594e-05,-0.0009963161074948693
2024-04-18 22:02:53.226,0.0009461029526080159,-0.24710338320371458,-9.803729131826959,-0.00288800904419748,0.0002460100300795834,0.0013368265198114176,0.06140684766820641,3.9020558967097424e-05,-0.0010915084886223387
2024-04-18 22:02:53.268,0.0003432698783381728,-0.30508303613473214,-9.78613188574768,-0.0011363626336141804,0.0002500100414064695,0.00131236957424145,0.07006640232607413,6.744098811848004e-05,-0.0009608836140557476
2024-04-18 22:02:53.317,0.0003016347192191719,-1.1917442157594906,-9.8232028996727,-0.002064366055448625,0.00024954528408782043,0.0013107991408039211,-0.03712016115356072,3.0278128903667197e-05,-7.20128576938914e-05
2024-04-18 22:02:53.364,-0.004162754562552715,-1.5557791065939381,-9.829790795855848,-0.003173612354637307,0.00024849242756670237,0.0013113744850646145,-0.044370027904234825,1.601399618530563e-05,1.2024592071180151e-05
2024-04-18 22:02:53.410,0.002403614916578239,-1.0775540443553995,-9.800701216016186,-0.002218779274434205,0.0002483632816225411,0.0013122314700929518,0.03819341409208264,-5.5344250629327056e-05,4.367143542471418e-05
2024-04-18 22:02:53.459,0.0032079891820703537,-0.8398276733176677,-9.800639003671156,-0.002015963303735016,0.0002473335029492635,0.0013149299890960254,0.00811256878270448,-5.2058120594993236e-05,0.00010985207786710437
2024-04-18 22:02:53.506,0.0030459258741116785,-1.0511846073340485,-9.823443087753283,-0.0031272098023765425,0.00024544287276779663,0.0013225189008878265,-0.04445014458097384,-1.808522167151325e-05,0.00029254007705918595
2024-04-18 22:02:53.553,0.001989635378407258,-1.010658782633396,-9.826868305755514,-0.003326293251317716,0.00024362774066713554,0.0013295904016868917,-0.007963538347329747,-6.30072515754153e-05,0.00028069871386715
2024-04-18 22:02:53.592,0.00394051202803048,-0.6514319229423738,-9.810313488984493,-0.002902198737347259,0.00024398289522407926,0.0013350857899475325,0.016963811850836945,-8.997792511677454e-06,0.0002239282032279289
2024-04-18 22:02:53.621,0.0038602816615827132,-0.5847075676358435,-9.806284401453562,-0.002842985377865964,0.0002441083878125293,0.0013381440831986373,0.0023685183427509023,1.5081084950433685e-06,0.00012291459934997754
2024-04-18 22:02:53.657,0.005037432048925574,-0.7246255908804897,-9.81991179211484,-0.0029621313771981497,0.00024422310286405675,0.0013399243190547372,-0.004765867178795432,1.0758563239535198e-05,7.007866665876267e-05
2024-04-18 22:02:53.704,0.003492080889036122,-0.777243259116629,-9.823067019715516,-0.00295903905761151,0.0002444657144020276,0.0013405468759477342,0.00012370002057102072,9.464903647283537e-06,2.4960625838773622e-05
2024-04-18 22:02:53.750,0.0036320646907543534,-0.7719696860337127,-9.811856690417331,-0.003943414193857974,0.00024348047679708407,0.0013410392029347784,-0.03937526268046685,1.3339717243050763e-05,1.014585163855452e-05
2024-04-18 22:02:53.796,0.0036432517024284814,-0.6093877085507632,-9.799182787762655,-0.0019828603193037166,0.0002464259515589825,0.001340221648887728,0.07842260501003959,1.269675286812614e-05,-1.3479569873313777e-05
2024-04-18 22:02:53.841,0.0039505555093330156,-0.7047517683486545,-9.83233125745422,0.0014962144770919812,0.0002513459281712298,0.001339269620601677,0.13916321009675287,1.0344364697747202e-05,-3.478818153817267e-06
2024-04-18 22:02:53.888,0.003905585864262943,-1.7710203627850503,-9.845060573799453,0.002130784137417766,0.0002524988136552038,0.0013389754146989061,0.025382869726964973,1.211146485094993e-05,-5.403393814559127e-06
2024-04-18 22:02:53.935,0.00394510149723921,-2.9355759735085307,-9.793501906591842,-0.00035399944390529335,0.0002495460559689403,0.0013393094134640984,-0.09939147731946485,1.5007588633590506e-05,-1.1565611417691543e-05
2024-04-18 22:02:53.980,0.00399789043168691,-2.762740579527086,-9.737436662791977,-0.00249757634181221,0.0002469702903053861,0.001339649869921866,-0.08574324129782916,1.1848043091919827e-05,-7.6259715961006176e-06
2024-04-18 22:02:54.027,0.00409161569797967,-1.5242771569284284,-9.768997600098254,-0.0018261559802494266,0.0002482117337389044,0.001339605929313628,0.026856919740196765,1.3672162601207346e-05,4.912295204842831e-06
2024-04-18 22:02:54.072,0.0041218224712264995,-0.7234903902066779,-9.86602166372621,0.0003957413398155407,0.0002514449754446951,0.0013393755954873292,0.0888760268298805,1.030056638706584e-05,1.297490662235612e-05
2024-04-18 22:02:54.118,0.004242174717052574,-1.0899158841132093,-9.893533955728419,0.0012781471557744492,0.0002528449511613215,0.001339255539861058,0.03529628958373334,8.733194979566148e-06,4.082551176773421e-06
2024-04-18 22:02:54.174,0.004269463649535765,-1.884265189433913,-9.801485110190008,4.500151061702453e-06,0.0002514742294982296,0.0013393650267354185,-0.050945921336538545,1.34088999981589e-05,-8.458558489804563e-06
2024-04-18 22:02:54.205,0.004298639374162901,-1.9624332547335925,-9.722072448743791,-0.0015581848148159532,0.0002496073445021596,0.0013395606553178948,-0.06250746779763232,9.069359923049503e-06,-7.814338311628471e-06
2024-04-18 22:02:54.249,0.004388395401129345,-1.251542159515759,-9.768391774792242,-0.0015064033926927578,0.0002499076576657454,0.0013395785730201475,0.0020712733000175687,9.236083224794492e-06,1.2477007947103244e-06
2024-04-18 22:02:54.291,0.004367509811264578,-0.6279543733450835,-9.868743733218006,-0.00017820302020449602,0.0002519331647395054,0.0013393716842398094,0.05312809890987972,9.858967580578579e-06,5.050588892790097e-06
2024-04-18 22:02:54.319,0.004433849897801904,-0.711063599433523,-9.881536845156571,0.0006419643745314696,0.00025321770169732847,0.001339114617343486,0.03280673853352909,7.44317772059325e-06,-2.0043325754330237e-06
2024-04-18 22:02:54.349,0.004478717997793348,-1.209596562721371,-9.79704773086176,4.922598719695265e-05,0.0002526653176875413,0.0013388843832935471,-0.02370954250200889,9.655472529738669e-06,-1.5204117280828487e-05
2024-04-18 22:02:54.379,0.004501333219125057,-1.3738928583277987,-9.741169496625993,-0.0010404699391298414,0.0002513345592214834,0.0013386980780667464,-0.0435878734889228,5.1539549969465355e-06,-1.8428218463328144e-05
2024-04-18 22:02:54.415,0.004583536438648837,-0.9863551645035731,-9.785374534265976,-0.0012452006662772924,0.00025120971909845186,0.0013385055700791374,-0.008189231587492102,5.9816651769184824e-06,-9.75000240852277e-06
2024-04-18 22:02:54.462,0.004558394049984081,-0.5190047072533145,-9.854969845522696,-0.00047121571141777493,0.00025244209390309853,0.0013382519126209386,0.030959450190420134,7.859724727349587e-06,-2.349246372613016e-06
2024-04-18 22:02:54.521,0.004566411791096207,-0.484764905089503,-9.855438766416743,0.0001858808228145658,0.0002534923143513841,0.0013379492786400342,0.026283897013867335,6.83551654961251e-06,-5.459916936968795e-06
2024-04-18 22:02:54.581,0.004614223470550126,-0.7869428639448377,-9.79828471344661,7.510185440132535e-06,0.00025349873555063863,0.0013379783257455242,-0.007134818872916837,9.803039224683435e-06,-6.459603780915776e-07
2024-04-18 22:02:54.635,0.0046322207327529254,-0.9330504887406016,-9.768085928473266,-0.0005947426131636335,0.0002528956174089134,0.001337940610104653,-0.02409012290414285,8.113703164987578e-06,-7.600917860100292e-06
2024-04-18 22:02:54.682,0.0046672410519549914,-0.7468509307695577,-9.79965534081457,-0.0008254946128428242,0.0002527783186697922,0.0013380858795586522,-0.009230081530044698,7.654754006017928e-06,3.484279201502051e-06
2024-04-18 22:02:54.713,0.004684551827589499,-0.46043433390357436,-9.836343767444108,-0.0005356408666902136,0.00025336752931757485,0.0013380792252901297,0.011594173420502969,8.053428981002634e-06,2.671149886525251e-06
2024-04-18 22:02:54.751,0.004697217950426866,-0.3933679649496766,-9.826703089138626,-0.00026155637065004524,0.0002539405381105655,0.0013380564741613578,0.010963401477207972,8.25035114786508e-06,1.8718948904393392e-06
2024-04-18 22:02:54.787,0.004734919505357141,-0.5202321816172066,-9.801677242028026,-0.00025947020810416523,0.00025414409043761425,0.0013380525167053015,8.345736159535828e-05,8.030465193397437e-06,-1.3502138282598326e-07
2024-04-18 22:02:54.820,0.004731941774370237,-0.5625568092191617,-9.799371659971815,-0.00041785838646319473,0.000254136845093381,0.0013380709182771219,-0.006335522203095361,8.187946974860064e-06,-8.699807814658874e-07
2024-04-18 22:02:54.866,0.0047627010656221495,-0.485738896743689,-9.810767601850305,-0.0004657134585535059,0.0002542622481214297,0.0013380739167384303,-0.0019141946142410226,7.577637781978088e-06,-3.62939010706416e-07
2024-04-18 22:02:54.912,0.0047823618845049464,-0.3733886439478296,-9.816747437553369,-0.00044051187375903706,0.0002545055008366446,0.0013380716036329313,0.001008075602263505,8.38116697042704e-06,1.6750052010163862e-07
2024-04-18 22:02:54.958,0.004786413182986833,-0.36336459763665263,-9.810987487099727,-0.00041433423748647865,0.00025474978605397893,0.001338064437444151,0.0010471177221547524,8.370309079498179e-06,-1.6663904160006514e-08
2024-04-18 22:02:55.015,0.004786047202336222,-0.3652934801020031,-9.809227473781815,-0.00040911888070484855,0.00025486035332218193,0.0013380693728095147,0.00020861996237625784,4.143444901670578e-06,2.522566496656035e-07
2024-04-18 22:02:55.097,0.0047992479261339,-0.34887863528653007,-9.809879585817587,-0.0004108883445244373,0.00025491954904647104,0.001338070143629307,-7.07753328751765e-05,2.4625281120635364e-06,1.3806887103152582e-08
2024-04-18 22:02:55.167,0.004832867941884892,-0.31296875936779495,-9.810447226899853,-0.0004132278264259303,0.0002549983037596074,0.001338073751181052,-9.357501922151186e-05,3.2753514791629893e-06,1.2180170414786075e-07
2024-04-18 22:02:55.204,0.004844839892924102,-0.2880073597762963,-9.810419100959438,-0.0004132278264259303,0.0002549983037596074,0.001338073751181052,-0.0,0.0,-0.0
2024-04-18 22:02:55.241,0.004856154415749363,-0.26596471044309417,-9.810458309637966,-0.0004132278264259303,0.0002549983037596074,0.001338073751181052,-0.0,0.0,-0.0
2024-04-18 22:02:55.286,0.004849182184221999,-0.2528378678069159,-9.810357819936938,-0.0004132278264259303,0.0002549983037596074,0.001338073751181052,-0.0,0.0,-0.0
2024-04-18 22:02:55.316,0.00485107852605986,-0.24035720875652727,-9.81034683033108,-0.0004132278264259303,0.0002549983037596074,0.001338073751181052,-0.0,0.0,-0.0
