Timestamp,Linear_Acceleration_X,Linear_Acceleration_Y,Linear_Acceleration_Z,Orientation_X,Orientation_Y,Orientation_Z,Angular_Velocity_X,Angular_Velocity_Y,Angular_Velocity_Z
2024-03-06 14:09:13.787,1.895890749825868e-05,-0.006725309048103973,-9.810479078130392,0.00040758405057420087,5.9955060633804145e-06,-2.8619101303029784e-08,-0.0,0.0,-0.0
2024-03-06 14:09:13.840,1.9061194738740747e-05,-0.0067281556299611115,-9.810476842956321,0.00040758405057420087,5.9955060633804145e-06,-2.8619101303029784e-08,-0.0,0.0,-0.0
2024-03-06 14:09:13.893,1.913104943522519e-05,-0.006728051083550108,-9.810475352840271,0.00040758405057420087,5.9955060633804145e-06,-2.8619101303029784e-08,-0.0,0.0,-0.0
2024-03-06 14:09:13.946,1.9026520610153956e-05,-0.0067234284859984395,-9.81047833307237,0.00040758405057420087,5.9955060633804145e-06,-2.8619101303029784e-08,-0.0,0.0,-0.0
2024-03-06 14:09:14.000,1.91441342567184e-05,-0.006723893237768971,-9.810475352840271,0.00040649251636391695,6.035259723551127e-06,-2.8822229574634922e-08,-4.366137202002376e-05,1.590141616862862e-06,-9.03328429926085e-09
2024-03-06 14:09:14.051,1.783492531103103e-05,-0.006665527600398024,-9.810478519336876,0.00040649251636391695,6.035259723551127e-06,-2.8822229574634922e-08,-0.0,0.0,-0.0
2024-03-06 14:09:14.119,2.03734482710884e-05,-0.006598873601779291,-9.810475539104779,0.00040649251636391695,6.035259723551127e-06,-2.8822229574634922e-08,-0.0,0.0,-0.0
2024-03-06 14:09:14.176,1.938206463192142e-05,-0.0067299952648070096,-9.810478146807862,0.00040649251636391695,6.035259723551127e-06,-2.8822229574634922e-08,-0.0,0.0,-0.0
2024-03-06 14:09:14.229,1.916150951268203e-05,-0.006756958643677164,-9.810475352840271,0.00040649251636391695,6.035259723551127e-06,-2.8822229574634922e-08,-0.0,0.0,-0.0
2024-03-06 14:09:14.284,1.9486414933138775e-05,-0.006767064902848508,-9.81047898499814,0.00040649251636391695,6.035259723551127e-06,-2.8822229574634922e-08,-0.0,0.0,-0.0
2024-03-06 14:09:14.340,1.9241813983049276e-05,-0.006770020078367881,-9.810476842956321,0.00040649251636391695,6.035259723551127e-06,-2.8822229574634922e-08,-0.0,0.0,-0.0
2024-03-06 14:09:14.397,1.9427253726683922e-05,-0.006772615730648718,-9.810475259708019,0.00040649251636391695,6.035259723551127e-06,-2.8822229574634922e-08,-0.0,0.0,-0.0
2024-03-06 14:09:14.450,1.945951058899847e-05,-0.006771333616028527,-9.810478146807862,0.0004053972811562595,6.074093787194201e-06,-2.9183753744780065e-08,-4.380941186828223e-05,1.5533551859420772e-06,-1.5355095216576913e-08
2024-03-06 14:09:14.501,1.81581446136559e-05,-0.006749130122928754,-9.81039768054124,0.0004053972811562595,6.074093787194201e-06,-2.9183753744780065e-08,-0.0,0.0,-0.0
2024-03-06 14:09:14.550,2.0922424398438407e-05,-0.006601792442987055,-9.810558519942235,0.0004053972811562595,6.074093787194201e-06,-2.9183753744780065e-08,-0.0,0.0,-0.0
2024-03-06 14:09:14.602,1.9412189333222907e-05,-0.006753831118919992,-9.810478239940117,0.0004053972811562595,6.074093787194201e-06,-2.9183753744780065e-08,-0.0,0.0,-0.0
2024-03-06 14:09:14.656,1.9564673218159904e-05,-0.006784086595605788,-9.810475352840271,0.0004053972811562595,6.074093787194201e-06,-2.9183753744780065e-08,-0.0,0.0,-0.0
2024-03-06 14:09:14.713,1.9540750133561565e-05,-0.006790170932972717,-9.810478146807862,0.0004053972811562595,6.074093787194201e-06,-2.9183753744780065e-08,-0.0,0.0,-0.0
2024-03-06 14:09:14.765,1.9304823844049567e-05,-0.00679221343060221,-9.810475259708019,0.0004053972811562595,6.074093787194201e-06,-2.9183753744780065e-08,-0.0,0.0,-0.0
2024-03-06 14:09:14.817,1.705231845779909e-05,-0.0067925698160841725,-9.810477588014344,0.0045736696995218925,5.901494285977231e-06,4.634723741995988e-07,0.16673153400476698,-6.802169625622594e-06,2.0750302929528904e-05
2024-03-06 14:09:14.873,0.00015108455777159183,0.18004138558810034,-9.848219247293489,0.0018644073049649942,6.621427805665303e-06,-4.135853470717973e-07,-0.1083710901620673,2.878178398578623e-05,-3.577551454584057e-05
2024-03-06 14:09:14.927,-3.4438415282455205e-05,-1.0706966147008097,-9.765612428964829,-0.0015036464663450808,8.139198645129083e-06,-1.8383548193653727e-06,-0.1347222162780583,6.07435836758403e-05,-5.779165292641827e-05
2024-03-06 14:09:14.983,0.0001173670150609496,-0.3095874122956111,-9.754492903613357,0.002555244162534687,9.084897030097065e-06,1.1304205042710034e-06,0.16235575788929393,3.843577228382357e-05,0.00011997402825414127
2024-03-06 14:09:15.036,-0.000400814732306891,0.26837394724174285,-9.850179215558674,0.007860087202323156,9.536825436033044e-06,8.014622276576425e-06,0.21219684519396187,2.0021402436751533e-05,0.00027714767599430615
2024-03-06 14:09:15.121,-0.0013108823000406872,-1.5979497283739634,-9.907699278283246,0.005153674691242383,7.77123850430864e-06,1.4233136588293755e-05,-0.10825882781510712,-6.847688806511107e-05,0.0002480655043263862
2024-03-06 14:09:15.179,0.0017549959712569857,-2.852909541806777,-9.746473564701015,-0.001738898521633475,9.352102449650032e-06,1.4367477519935652e-05,-0.2757038752442673,6.716029793239424e-05,3.3614073566047533e-06
2024-03-06 14:09:15.231,0.0007762068407495226,-0.9533414047952633,-9.605538016294652,-0.0018411055824834152,9.607738642764838e-06,1.4711682108282589e-05,-0.004088288970730804,1.0258892357668657e-05,1.3748863446556216e-05
2024-03-06 14:09:15.282,0.0008108503705253954,1.4593561068855585,-9.76782767273559,0.003129713392128308,1.0364459343519277e-05,1.3568785778009674e-05,0.19883300584736083,2.7211210141334554e-05,-4.3883633508908506e-05
2024-03-06 14:09:15.333,9.65686364968856e-06,1.0524893436329845,-10.0170162405187,0.004987437674452514,1.0470768679694623e-05,1.3653335547872585e-05,0.07430959400853045,3.265471459893974e-06,4.136870805241292e-06
2024-03-06 14:09:15.387,0.00029042419142377826,-0.810585333299961,-9.939652861168332,0.003087051406674601,1.0413574017662772e-05,1.7957297349922985e-05,-0.07601608346592321,-7.201437832410012e-07,0.00017136655162853595
2024-03-06 14:09:15.440,-0.0009321834497637794,-1.2797006176414607,-9.653235327159052,0.0028588923271514227,9.89143238999369e-06,2.4232653480304074e-05,-0.009126406378965038,-2.0004332954285196e-05,0.00025097744135970865
2024-03-06 14:09:15.494,5.356429001281733e-06,-0.6724810956078248,-9.628696096070575,0.002203844520545075,9.767646734162465e-06,2.6683787325326474e-05,-0.02620199774565023,-4.10088098862435e-06,9.779566172427804e-05
2024-03-06 14:09:15.549,0.0014348666966298165,-0.2014875141662888,-9.847695564634657,0.0009438321287303223,1.1058792895140315e-05,2.5712089042835063e-05,-0.05040055959783795,5.295386181836183e-05,-3.9409375875325956e-05
2024-03-06 14:09:15.604,0.00042151828255248733,0.26635085713687007,-9.965161971539947,-0.0004206150897896817,1.169673431876004e-05,2.5290758316176993e-05,-0.05457789396665756,2.692871976318306e-05,-1.7444512057254194e-05
2024-03-06 14:09:15.657,0.0004403485111226831,0.9508875169020488,-9.818823821134853,0.0015549959337060207,1.1642672966162042e-05,2.485453186165911e-05,0.079024466619813,-4.185816224713353e-06,-1.6516267421708085e-05
2024-03-06 14:09:15.715,0.0003044262155427944,1.0640257696944155,-9.725130818801306,0.004971049932677583,1.1296035624000618e-05,2.769164827025616e-05,0.13664295217887762,-1.6686678051618656e-05,0.00011516571659304479
2024-03-06 14:09:15.771,-0.00030973247028171636,-0.018229256100308094,-9.813189785487317,0.005998306393786458,1.0538835164270738e-05,3.364160381672948e-05,0.04109087496633899,-2.9994714548008607e-05,0.0002386471810924859
2024-03-06 14:09:15.830,-0.0005213441860617615,-1.3562819916565143,-9.875930004126923,0.00147382167911488,1.0062475526934874e-05,3.6595461497024824e-05,-0.18098080776233555,-1.2790245074169759e-05,0.00011627973743717539
2024-03-06 14:09:15.882,0.001286683504978774,-0.9440898912506323,-9.748188595140709,-0.0012903326045050614,1.1703564071673935e-05,3.623399463727706e-05,-0.11056620435511531,6.971132246863667e-05,-1.5475712615319594e-05
2024-03-06 14:09:15.934,0.00046589997911618367,0.9299845749705905,-9.700899203544612,0.00024332853333455297,1.2215635427636155e-05,3.689978221189622e-05,0.06134646030395538,1.8267233154262373e-05,2.734673535490388e-05
2024-03-06 14:09:15.989,0.0004807884620993749,1.8109070324746346,-9.838248228886481,0.0020257348221535292,1.2787706792951002e-05,3.4923526601390936e-05,0.07129630867052125,2.0094406607166686e-05,-7.821781705678607e-05
2024-03-06 14:09:16.047,0.00023815414783724716,1.124124929350455,-9.944985148316023,0.002859395065825794,1.3790585729178073e-05,3.470812672583832e-05,0.03334651168404964,3.892718250997309e-05,-8.300426357939222e-06
2024-03-06 14:09:16.101,9.88596464364071e-06,0.261954882371054,-9.84925236337644,0.0027598781008946706,1.3304697582190503e-05,3.6881908701830255e-05,-0.0039806961321747925,-1.905746372002467e-05,8.694931726670692e-05
2024-03-06 14:09:16.152,0.00013631624603342095,-0.04344801794192855,-9.703071979007989,0.003947839198104056,1.2593977044776088e-05,4.21841474888151e-05,0.04751871020953632,-2.9340995656923147e-05,0.00021284030672864663
2024-03-06 14:09:16.208,-0.0005119940310115669,-0.2415037541029123,-9.749566207427646,0.002390258307097627,1.3240759275451985e-05,4.327311201435369e-05,-0.0623035542112824,2.8602285815288657e-05,4.27077338451702e-05
2024-03-06 14:09:16.262,0.0010766864079606686,-0.22425353043998586,-9.842053426481108,-0.001273900374453276,1.4015292670546144e-05,4.30801845743983e-05,-0.14656645048464811,3.733952141863597e-05,-9.598565562904833e-06
2024-03-06 14:09:16.315,0.0007216999149454238,0.8357299502266315,-9.836772548337095,-8.94442253021896e-06,1.5183800294218258e-05,4.26325120712961e-05,0.05059825409095157,4.456112578010905e-05,-1.719597375534309e-05
2024-03-06 14:09:16.368,0.0001845912220664177,1.8136790790617159,-9.813304058761796,0.004354272540342543,1.5915482454036603e-05,4.2572909844825584e-05,0.17452922999578696,2.1833493425496685e-05,1.8708484329958938e-07
2024-03-06 14:09:16.423,0.00046239540629527465,0.8561132534763068,-9.84195452002838,0.005588647636655999,1.5434832675679457e-05,4.614651150240022e-05,0.04937561411662417,-2.0523973081683187e-05,0.00014384814803872702
2024-03-06 14:09:16.504,-0.0005598798541753554,-0.743518623831263,-9.828861801631794,0.004035208707045015,1.4422300689845178e-05,5.2535041289321725e-05,-0.06213828827298089,-3.660546317572898e-05,0.0002547341099535561
2024-03-06 14:09:16.560,8.436742459161508e-07,-1.086406986781623,-9.755482992595404,0.0005598701651184638,1.3619801671972978e-05,5.545244607387003e-05,-0.13901398161242368,-2.4729163103400174e-05,0.00011471784766062956
2024-03-06 14:09:16.614,0.0016690412155853588,0.1011437513787939,-9.708072342805854,0.00011488795870489725,1.5022129308152542e-05,5.5406179970554794e-05,-0.01779928624829977,5.707993258631214e-05,-2.0994050879761768e-06
2024-03-06 14:09:16.686,0.00046484771937575054,1.3510691873687053,-9.821024722538645,0.0008619428060862975,1.5719143231535962e-05,5.589437451657912e-05,0.029882199343585113,2.6242275835632713e-05,1.995468260055135e-05
2024-03-06 14:09:16.740,0.00044458910812798276,1.569758641945486,-9.912080591995167,0.0007325373795916373,1.6465203324436124e-05,5.4242065449342906e-05,-0.005176215945663434,3.008324758195774e-05,-6.619576462404718e-05
2024-03-06 14:09:16.794,0.0003227196603654997,1.2821527258355272,-9.853427109751122,0.002162460333872823,1.7888859360372568e-05,5.387363729174371e-05,0.0571969862238257,5.3814480203094414e-05,-1.3909552685198004e-05
2024-03-06 14:09:16.848,-1.1547565199580234e-05,0.9403452587243094,-9.768115078868465,0.0033813381843861593,1.7783856707762408e-05,5.470220622027985e-05,0.048755303454673875,-6.711139028289465e-06,3.4039421746503976e-05
2024-03-06 14:09:16.901,0.00041367778773846223,0.3169247075210697,-9.76729113782584,0.004544061152610534,1.77668717182324e-05,5.9233424337566224e-05,0.04650928322668289,-2.3956748202094733e-06,0.0001820900843913198
2024-03-06 14:09:16.956,-0.0007218276605756475,-0.3318660385672302,-9.838835614006394,0.0033006147690152732,1.6603473914548403e-05,6.17682474924227e-05,-0.0497382454844979,-4.325721123484166e-05,0.00010065438896331487
2024-03-06 14:09:17.013,0.0013820887343825217,-0.4398537241550722,-9.817409794136976,-0.0005008206028685187,1.6546499804880463e-05,6.169129072405124e-05,-0.15205765520627673,7.120942841578529e-06,-5.581532178727099e-06
2024-03-06 14:09:17.065,0.0008073301373433341,0.599197880280817,-9.743107951340725,-0.0008990020195830483,1.7256644552841183e-05,6.0730359767419865e-05,-0.01592725822473614,2.9423195564792e-05,-3.8674147207661875e-05
2024-03-06 14:09:17.119,0.0002542255522583444,1.9005818204677918,-9.787585866482111,0.004190784356527123,1.7602831474578617e-05,6.340824511495946e-05,0.20359194914389706,1.9559987897744987e-06,0.00011065295298668931
2024-03-06 14:09:17.174,-0.0002181900409075236,1.3488802592801925,-9.921853518099962,0.007440474572532881,1.696029332816441e-05,6.951969323338318e-05,0.12998985814556632,-3.210327490127446e-05,0.00024700520462366037
2024-03-06 14:09:17.226,-0.0007774749050983251,-0.7730717519981234,-9.894630960536954,0.0023598708545446725,1.6327960341537322e-05,7.310238391622935e-05,-0.2032268107968433,-1.0826189442456869e-05,0.00013992268466920654
2024-03-06 14:09:17.280,0.0018107299545694685,-1.1372546008788191,-9.669392282945099,-0.0025254862701912227,1.8609243641053476e-05,7.287911186855601e-05,-0.1954144725914641,0.00010557452134416775,-1.1820105436884128e-05
2024-03-06 14:09:17.332,0.0008824374752776614,1.1456956484536844,-9.633426935128147,-0.0005440786631098347,2.010441367948866e-05,7.740420764912911e-05,0.07925641107853307,5.3932835909170975e-05,0.00018251382584193342
2024-03-06 14:09:17.387,0.0024593798713646356,2.6114450807834984,-9.872167088575175,0.0038677420097440072,2.3269071079705453e-05,7.770791800095053e-05,0.1764732226638954,0.00011299437808472084,1.528950677894759e-05
2024-03-06 14:09:17.441,-0.0011918993737406226,1.4688929369081372,-10.034661263443786,0.003933474457365608,2.3092814655236697e-05,7.84716037617609e-05,0.0026293166543515326,-7.134119371043093e-06,3.063691789295399e-05
2024-03-06 14:09:17.494,0.00019551563847416335,-0.08932819631347619,-9.835442526631459,0.0036934580258221896,1.4833057748772476e-05,7.799063289894886e-05,-0.009600752725560904,-0.0003297064922347026,-1.8242820003758657e-05
2024-03-06 14:09:17.547,-0.002186710312788583,0.20973904342698751,-10.024753574968843,0.008211750580764086,1.2681524889601521e-05,0.0001664073506355778,0.18073500686980082,-7.10829554232582e-05,0.0035400845020420726
2024-03-06 14:09:17.599,0.03198109393890204,0.44777086833675106,-10.480731507281488,0.0021753796484809095,2.4283429662565835e-05,0.00024312123130347825,-0.24145845335183924,0.0005109333369795629,0.003064510300880507
2024-03-06 14:09:17.650,0.00566660360533869,-0.6051551612439442,-7.59905088920929,-0.002992261267523234,2.802184524943354e-05,0.0002471950774898197,-0.20670584601216405,0.00019933009123756495,0.0001586613543200337
2024-03-06 14:09:17.702,-0.025824036647568854,1.4671392973287922,-9.5083822636609,0.00037727132809609363,3.571269952325863e-05,0.0002742174283016661,0.13478151611114134,0.0002747324946417639,0.0010846234501598897
2024-03-06 14:09:17.755,0.009934293944926533,2.7805927285829286,-11.706617570447273,0.005807057161813509,4.972190554907597e-05,0.0002880560128396144,0.2171928571700615,0.0005040835394965608,0.0005585437790585607
2024-03-06 14:09:17.813,-0.004106079959969138,1.0515238008203787,-10.683851926702587,0.0041735473148753885,4.511076203157527e-05,0.00029259293478166613,-0.06534127311895993,-0.00016487580635447962,0.0001789330425892705
2024-03-06 14:09:17.864,-0.0005876675577925648,-0.5226588676165769,-8.568006346963044,-0.0005810260787776301,1.9302367995851937e-05,0.0003656301715112824,-0.190183772669511,-0.0009783615806698315,0.0029124746466129142
2024-03-06 14:09:17.918,-0.018501637648587782,0.20083949703926748,-8.914104728382695,-0.006464738973191634,-1.019467981309682e-05,0.0007659075298065929,-0.23535058569238101,-0.0011972747884470684,0.01599940161971145
2024-03-06 14:09:17.976,-0.07909116699878987,1.6158766626289955,-11.346039289005097,0.0004573539245531042,1.5190147008915407e-05,0.0007700116257820729,0.27688621192038876,0.0008033900394602511,0.00016170770534540188
2024-03-06 14:09:18.028,0.1502725039094173,3.3104074128616805,-8.801238635682342,0.004856798837853595,5.781054689905753e-05,0.0007687833339902015,0.17597982321881586,0.0015690735685955964,-5.378179008399686e-05
2024-03-06 14:09:18.080,-0.009178632531670788,0.9528623732309964,-9.193794085752685,0.0008880123713860827,7.08322421907777e-05,0.0007667289652788597,-0.15875176408638297,0.0006428504445425753,-9.168099046551305e-05
2024-03-06 14:09:18.131,0.0028142161709459965,-0.2238404888977623,-10.628991907389286,-0.0024865159637253707,4.8919838948815966e-05,0.0007677364582384242,-0.13498187492598918,-0.0007730603862272646,2.8991156495178016e-05
2024-03-06 14:09:18.185,0.006282219825986751,1.1775161653580615,-10.481353071938262,-0.0020704121732736565,1.548873214981871e-05,0.0007687404781858638,0.01664316272911034,-0.0013501040108048576,3.818244076959619e-05
2024-03-06 14:09:18.242,-0.0004134088075353597,2.339612721167273,-9.347282977112167,0.0008413978458875551,3.203058645463568e-07,0.0007711744312499646,0.11647196315291729,-0.0006961874258427309,9.987831032221355e-05
2024-03-06 14:09:18.293,-0.010160822620820182,1.8065000433647052,-9.191518585414208,0.002420809239846187,1.541503373983804e-05,0.0007725818814604215,0.06317699247209635,0.0005552036375990981,5.501285206798113e-05
2024-03-06 14:09:18.347,-0.013637395693695587,0.4993770267178972,-10.004445621532643,0.0006916783735685812,4.465824522228797e-05,0.0007724153676781542,-0.06916440225730794,0.0012231592790642833,-8.526576599574872e-06
2024-03-06 14:09:18.401,-0.00809949563246113,0.04717238838244993,-10.3235322735271,-0.001209780695708413,6.503542608975848e-05,0.0007718244064414677,-0.07605772280693586,0.0008738708439409034,-2.592204082346418e-05
2024-03-06 14:09:18.454,0.0006816259446193423,0.8209796145139632,-9.782492742960219,-0.0006160028201401251,6.0459303462681035e-05,0.0007718144818983733,0.02375097691076813,-0.00020137676156490436,1.0290669605387975e-06
2024-03-06 14:09:18.513,0.005903896014092365,1.3526752472515797,-9.40532299720545,0.0007381141379110217,3.736902460904821e-05,0.0007703852808736857,0.05416395571648868,-0.0009654532339028485,-5.31524478047155e-05
2024-03-06 14:09:18.567,0.0027258545584527122,0.9762872536288109,-9.731356709916897,0.0011349991769287668,1.5610084317681226e-05,0.0007721256663340911,0.015874732390753182,-0.0008825071579704542,7.121277287861012e-05
2024-03-06 14:09:18.625,-0.0042108903063221665,0.38695161837662334,-10.111171458224073,0.00029668957418427786,1.6937707428750627e-05,0.0007735639920956898,-0.03353234363914802,7.90132614511223e-05,5.6997017283346415e-05
2024-03-06 14:09:18.682,-0.009779526648593674,0.28808004658940956,-9.948339492673693,-0.0004950612757594122,3.907991756545016e-05,0.000773492206972991,-0.03166934024941476,0.0009101887199651202,-2.9475228946142623e-06
2024-03-06 14:09:18.735,-0.008020509318282095,0.6275686457464463,-9.604080775931365,-4.3842943954416306e-05,6.305599876717892e-05,0.0007735788669171571,0.018049470224479062,0.0009450823831462519,4.216347275835601e-06
2024-03-06 14:09:18.791,-0.001230156247635314,0.8005313893527716,-9.645056452697256,0.000268034658285368,6.761843352363817e-05,0.0007739723111268762,0.012475240572642767,0.00017285140601350387,1.6479587158187226e-05
2024-03-06 14:09:18.846,0.004584206491785517,0.6339087548392391,-9.928342228433626,0.0003193989605899779,5.154332004409425e-05,0.0007735748002871492,0.0020540747044326367,-0.0006445995281069961,-1.5555624514279547e-05
2024-03-06 14:09:18.898,0.005016528592464565,0.43122263985408504,-9.981329916931852,6.367266541077993e-05,2.971531454239831e-05,0.0007722140147940253,-0.010229722781433009,-0.0008652104541381583,-5.490261517072145e-05
2024-03-06 14:09:18.956,0.0003859004253597379,0.409290501034059,-9.762009048962536,-8.027628501353231e-05,2.198042176697859e-05,0.0007742125147709571,-0.005758196986758876,-0.00030495563192831,7.974475499350088e-05
2024-03-06 14:09:19.014,-0.006066244164409422,0.47564725169631666,-9.659173625877262,3.8743021265576815e-05,3.579008097906597e-05,0.0007751700318768482,0.004761197119861383,0.0005487018485407067,3.8384307048230134e-05
2024-03-06 14:09:19.083,-0.007513925784308175,0.47994340469398195,-9.80264060205345,0.00016646833909585948,5.753064614591726e-05,0.0007754853778768738,0.005109684588590197,0.000865664123339377,1.2652860096028717e-05
2024-03-06 14:09:19.135,-0.003471115712704389,0.39469421479906425,-9.929239930220659,9.740889558341299e-05,6.847609234304898e-05,0.0007754408093494558,-0.0027620372799790713,0.0004399597148472535,-1.9844274137120047e-06
2024-03-06 14:09:19.190,0.0023668930778206923,0.33608332891925263,-9.851436687239193,0.00011897460191543402,6.0317327689869236e-05,0.0007761611855599133,0.000862373194801339,-0.0003270159662557723,2.8913022075069504e-05
2024-03-06 14:09:19.245,0.004328462356295751,0.33038409487382614,-9.727537356219807,0.00013569371334477975,4.0980176639060906e-05,0.0007776467479046221,0.0006681614794869115,-0.0007739968009889482,5.9567839050580765e-05
2024-03-06 14:09:19.297,0.0017708403970751816,0.3044358368253077,-9.753157200840286,0.00010321662331089859,2.845173868887786e-05,0.0007789016031714956,-0.0012994743513205882,-0.0005001219586175614,5.019260834041124e-05
2024-03-06 14:09:19.352,-0.0032383302763095705,0.27600280662775684,-9.860055611596595,1.6503038872432164e-05,3.252365620587314e-05,0.0007790529234075258,-0.0034684156622300163,0.00016557840801961147,5.951513108305988e-06
2024-03-06 14:09:19.407,-0.0060703139370015605,0.2761500872823834,-9.866189860575195,2.610311048275101e-05,4.9731754963351914e-05,0.0007796085380568512,0.0003845378843558806,0.0006880251645988653,2.2219136585742643e-05
2024-03-06 14:09:19.462,-0.0044220726752534365,0.2741125951476932,-9.786939808042785,5.066395061315795e-05,6.373251702153509e-05,0.0007796170932240367,0.0009828698895809438,0.0005592644191289473,3.6275846483961277e-07
2024-03-06 14:09:19.515,0.0007101879180924208,0.2578264620163016,-9.762237409246985,7.71842934373348e-05,6.281805995050769e-05,0.0007799682585693052,0.0010607839919869072,-3.740420921041097e-05,1.411712257552044e-05
2024-03-06 14:09:19.570,0.003744912255616057,0.22922972787337736,-9.81444371814222,0.00011466816578306862,4.8307740476210984e-05,0.0007814821203842167,0.0014988988184147243,-0.0005815750902180702,6.07153561992088e-05
2024-03-06 14:09:19.622,0.0028125273871579064,0.19792182944341255,-9.847846532016831,8.883700188268279e-05,3.445743074150087e-05,0.0007829933675329816,-0.0010336812769488283,-0.0005531993867742035,6.044912190679274e-05
2024-03-06 14:09:19.706,-0.0007744033640006443,0.18010205130335677,-9.820038545111226,3.498047764024663e-05,3.351820653801163e-05,0.0007832985527628169,-0.002154290137710268,-3.588175782382327e-05,1.2134482196759002e-05
2024-03-06 14:09:19.761,-0.004433809578766821,0.17678133769347498,-9.782277886852462,1.554191189081409e-05,4.487381232190135e-05,0.0007838850528590777,-0.0007771876495897161,0.00045483350560822177,2.3426896051187458e-05
2024-03-06 14:09:19.813,-0.004283902843933977,0.18280512454401576,-9.7908074973792,-7.4878338603799935e-06,5.8167998830797105e-05,0.000784559853425499,-0.000920774270948968,0.0005324892045131098,2.6954705080739362e-05
2024-03-06 14:09:19.868,-0.0006037639768472819,0.18143724166713718,-9.828122052145911,3.389641801913825e-05,6.278758814486675e-05,0.0007849500767144361,0.001655513556835159,0.0001834853141352484,1.569904139982755e-05
2024-03-06 14:09:19.922,0.00256451090803783,0.1642934929076879,-9.832771959275593,7.70874355639415e-05,5.4719994902899623e-05,0.0007859031668996261,0.0017273847793004473,-0.0003240567903675214,3.825708663972467e-05
2024-03-06 14:09:19.976,0.003229366628067562,0.14194057347348962,-9.800966549805091,7.357076135710783e-05,4.172326410142024e-05,0.000787195144100482,-0.00014107764667925106,-0.0005197547168873846,5.1709620710274225e-05
2024-03-06 14:09:20.028,0.0007101565362634438,0.11881804802655666,-9.791241679942862,3.6899002103131085e-05,3.616527995166012e-05,0.000787789736780364,-0.0014670457858416345,-0.00022116370675464043,2.373068605821791e-05
2024-03-06 14:09:20.082,-0.00239221063231452,0.10927522061430035,-9.812139067408543,2.1681190530286217e-06,4.210148665210231e-05,0.0007885786833140962,-0.0013890491589914659,0.00023854269007674765,3.150713707097326e-05
2024-03-06 14:09:20.153,-0.0038396078180616736,0.11657728929264308,-9.822023286555718,-2.0548702206261837e-05,5.5076484123755955e-05,0.0007888357857421659,-0.0009082638610776906,0.0005197160883824441,1.0256546039419338e-05
2024-03-06 14:09:20.207,-0.0018785032171054336,0.11834159033217365,-9.811304043627803,-1.5422702516053457e-05,6.157094593318949e-05,0.0007892974884154471,0.00020524370836202008,0.0002596163650073747,1.8483420568576383e-05
2024-03-06 14:09:20.263,0.001768967790960691,0.11995587059157024,-9.801207296679195,1.548230715894485e-05,5.849640985508606e-05,0.0007898992972179005,0.0012361015232006,-0.00012395675872232384,2.4150401666540385e-05
2024-03-06 14:09:20.317,0.0027966094258543937,0.10913117212179138,-9.808161482013542,2.8014185923118223e-05,4.805056362686805e-05,0.000791110063239257,0.0005009426208471894,-0.0004182283165103911,4.8471676471157537e-05
2024-03-06 14:09:20.373,0.001875241108099802,0.09343288249561842,-9.816612395786464,-2.3420901117642252e-05,3.877562070625614e-05,0.0007917400558518903,-0.0020576973148291335,-0.0003693705529494914,2.50922283950008e-05
2024-03-06 14:09:20.427,-0.0008051899486188269,0.09574545856575166,-9.812602027838395,6.185845162574891e-05,4.05853574983611e-05,0.0007923975568726005,0.0034112292869337775,6.969032729495388e-05,2.6428125905120204e-05
2024-03-06 14:09:20.480,-0.0032460780900651735,0.08318856167130485,-9.805446397440726,7.63610035043214e-05,4.9610827881271533e-05,0.0007932641618778574,0.0005803862478047173,0.00036056168014862776,3.466023564327125e-05
2024-03-06 14:09:20.534,-0.0022571317011839294,0.0510248635103176,-9.807125013169482,-9.149313892531433e-06,5.7380273884148674e-05,0.0007937809202425354,-0.0034201662732848094,0.0003134908542013551,2.0503647048432724e-05
2024-03-06 14:09:20.583,0.0005003356993101702,0.04714552118263992,-9.812574460691495,-4.665181503065465e-05,5.862351680431428e-05,0.0007941407589233736,-0.0015000609408834047,5.091978677563455e-05,1.4309875679096981e-05
2024-03-06 14:09:20.633,0.002285940729288683,0.07850918036632407,-9.811905491717924,-3.357604478630605e-05,5.183867110329454e-05,0.0007953093360162579,0.0005228126959847588,-0.0002718106711624337,4.6764623327589714e-05
2024-03-06 14:09:20.691,0.0021315815768551,0.0938342668629041,-9.810564107877417,1.1973084208540887e-05,4.4621597110850604e-05,0.0007960344873371899,0.0018217336963498752,-0.0002901315430141436,2.9104004250683987e-05
2024-03-06 14:09:20.746,6.893615945944294e-05,0.07323667248355197,-9.810599311869066,6.442517665714241e-05,4.116736852755152e-05,0.000796897064723858,0.002097971627143486,-0.0001398370138864459,3.460577401015052e-05
2024-03-06 14:09:20.799,-0.0013596957239121825,0.050765684999362626,-9.807595144782818,6.826594718296838e-05,4.671691736233989e-05,0.0007976432968010711,0.00015380627706316292,0.0002218614938985192,2.9840478642252842e-05
2024-03-06 14:09:20.849,-0.002590208320791781,0.02516549037478165,-9.809202421205748,-1.4349818769291259e-05,5.531932609961361e-05,0.0007979854426534669,-0.0033043558740959737,0.00034673196972008464,1.353655232063606e-05
2024-03-06 14:09:20.903,-0.0005022111845880982,0.02802754255416368,-9.811287745483522,-5.6702645640907166e-05,5.8008927461471464e-05,0.0007986545961984472,-0.0016940282373105766,0.00010893438861474584,2.6678643266839454e-05
2024-03-06 14:09:20.960,0.0017445620154758156,0.0564306310961608,-9.810002892920611,-3.3173713276696336e-05,5.451527770286601e-05,0.0007995899831990107,0.0009410433449421941,-0.00014049884627125294,3.746542874463403e-05
2024-03-06 14:09:21.013,0.002002281279554597,0.07116739642092751,-9.810917544777697,-8.102507174990386e-06,4.714031180172337e-05,0.0008004199082903539,0.0010026104800600435,-0.000295800677012292,3.3249284354292384e-05
2024-03-06 14:09:21.064,0.0011685581959040672,0.055122989234639146,-9.812217671030107,1.760572362793257e-05,4.174816819923969e-05,0.0008011618228255438,0.0010281550242906082,-0.00021650824543153883,2.9728880403768962e-05
2024-03-06 14:09:21.116,-0.0008189471552498651,0.048877883589194794,-9.808699507039343,9.421260017176341e-05,4.442765240989702e-05,0.0008016669451044344,0.0030643590528725614,0.0001047262747039573,2.0323056566503067e-05
2024-03-06 14:09:21.176,-0.0022411288719495458,0.01614005837573276,-9.808032959504349,4.926696583595898e-05,5.25867452991377e-05,0.0008022067753148336,-0.0017975642961745343,0.0003278059304650492,2.1497235131139166e-05
2024-03-06 14:09:21.228,-0.0012635560470183,-0.007381833178889014,-9.8100899715772,-5.920976942221362e-05,5.708665207205977e-05,0.0008029161988712632,-0.00433892523596158,0.0001834753908037628,2.815983345305849e-05
2024-03-06 14:09:21.279,0.0011573613950831335,0.016931881523987086,-9.810735657487513,-4.7389419410161294e-05,5.601062910477701e-05,0.0008034791357198352,0.0004727780278267045,-4.3421602055708744e-05,2.254241508821856e-05
2024-03-06 14:09:21.333,0.0020223063570877662,0.051090254198118204,-9.810109156821326,-1.9010158142534393e-05,5.112073738268377e-05,0.0008046319284564895,0.0011350105689639238,-0.000196508566771325,4.6171573996061194e-05
2024-03-06 14:09:21.389,0.0010858277359318273,0.05473129461207724,-9.811824652922287,-7.558614710356018e-06,4.472039701767163e-05,0.0008053389768898219,0.0004578543271498593,-0.0002563823159090173,2.830341592760812e-05
2024-03-06 14:09:21.473,0.0003624427043091984,0.03915890479671849,-9.811784419788975,8.369237421644234e-05,4.604565532135883e-05,0.000805894808858817,0.003650080042502552,5.007267841500906e-05,2.2392462551610585e-05
2024-03-06 14:09:21.526,-0.0018606816941396655,0.013955100049505613,-9.808117057928843,7.082894644868943e-05,5.0929987614299315e-05,0.0008068810794623661,-0.0005143815003039812,0.00019579068515266916,3.94132867142572e-05
2024-03-06 14:09:21.581,-0.0011415502972703757,-0.016936420664035147,-9.807557426220338,-4.110858210878584e-05,5.7274677251192756e-05,0.0008069534224956494,-0.0044772950689222855,0.0002574002172684884,2.6764765040581797e-06
2024-03-06 14:09:21.634,0.0001272144814351813,-0.0019180654361034164,-9.810363780401133,-2.80514379555977e-06,6.592058815732863e-05,0.0008288143446754231,0.0015323584586000576,0.0003445975550753315,0.0008745259365772772
2024-03-06 14:09:21.689,0.007797868743422534,0.07641038428986949,-9.839169306869028,0.001063443747354066,5.540609485930538e-05,0.0009174808161555179,0.04264940683178843,-0.0004521518900776365,0.0035499733783528834
2024-03-06 14:09:21.748,0.03501040737011543,0.22013599428066102,-10.134352541666496,0.0007473677931322485,5.9449965806598304e-05,0.0009190099156258011,-0.012642893236926061,0.00017339977511037332,6.033576729720375e-05
2024-03-06 14:09:21.800,-0.0345292377520163,-0.29341121592340086,-9.276589310629243,1.383945417109553e-05,6.206622812206496e-05,0.0009201583926119908,-0.029341030564617628,0.0001316164955572798,4.4202843079687315e-05
2024-03-06 14:09:21.855,-0.0001767156472262873,-0.13580509831418983,-9.637012433737858,-0.0002552308341210922,6.263720330973194e-05,0.0009207930551811083,-0.01076278764546593,3.273627022739672e-05,2.4728196125673134e-05
2024-03-06 14:09:21.917,0.0008388282924191372,0.1526255340916433,-10.179467947079926,0.00012715161381250583,6.225070217389339e-05,0.0009217115972241224,0.015295275010313652,-2.9538863341206482e-05,3.770619991991477e-05
2024-03-06 14:09:21.972,0.0009050002989700789,0.20572268841200486,-10.063603135530128,0.0005481019721975388,5.877421176408961e-05,0.0009217368384009663,0.016837880006149074,-0.0001545779776348983,2.145808831499924e-06
2024-03-06 14:09:22.025,0.0009418923721238913,0.024638725984247843,-9.603343447884065,0.000434804714343946,6.134972592968087e-05,0.0009218489425025753,-0.0045317942421211725,0.00010719957302681658,4.171439216646863e-06
2024-03-06 14:09:22.081,-0.0013402425852925,-0.0919601430359521,-9.546023014143879,0.0003101043775950189,6.390357925452065e-05,0.0009227178470296505,-0.0049879197271204805,0.00010676298426962405,3.4417368831876586e-05
2024-03-06 14:09:22.133,0.00010671871483666275,-0.05851736270323204,-9.87880117835583,0.0002327412554802408,6.660340105856381e-05,0.0009234618209923397,-0.003094426001595583,0.00011085508647315686,2.953553681455444e-05
2024-03-06 14:09:22.186,0.0004205281867719677,0.009345320006059418,-10.053027036875132,0.00029041619984567776,6.700963855010314e-05,0.0009245919078807436,0.0023070088541032197,1.4132247425446687e-05,4.535310874999592e-05
2024-03-06 14:09:22.242,0.0012626802143202336,0.02738203059323117,-9.831453392837082,0.000276651285197244,6.624922901118505e-05,0.0009252941220928965,-0.0005506263485071255,-2.9899527804138177e-05,2.805995958698717e-05
2024-03-06 14:09:22.295,0.0009200181541045567,0.01639102739994313,-9.630486004841712,0.0003101081021294093,6.639194961983047e-05,0.0009251809022407849,0.001338277740924358,4.469150094046907e-06,-4.441501545438852e-06
2024-03-06 14:09:22.350,0.00022260389806636705,-0.00048337562659236596,-9.738210033021204,0.00032798575088784207,6.620504046089483e-05,0.0009254224616363676,0.0007150981252142226,-8.134779426839102e-06,9.712531288213803e-06
2024-03-06 14:09:22.403,0.0004083027823087791,-0.012828592996392727,-9.927070321253886,0.00031457843152790985,6.715585561578839e-05,0.0009261442981888496,-0.0005362593047765086,3.853795932517503e-05,2.8825852975068984e-05
2024-03-06 14:09:22.458,0.0002947747591230682,-0.012673198069164669,-9.906230303256079,0.0002223625955942811,6.736280000830655e-05,0.0009273021287862894,-0.0036886274249092505,1.1704236416381116e-05,4.60630869190853e-05
2024-03-06 14:09:22.515,0.0009919055612033153,-0.0034783719964666497,-9.744798301733367,0.000294327771046175,6.755246510606218e-05,0.0009284843635227646,0.0028786097241339068,4.931247569675365e-06,4.748196792242181e-05
2024-03-06 14:09:22.572,0.00045184489593143746,0.018338946772261666,-9.712990098295272,0.00036012012284833276,6.934756621164961e-05,0.0009291359194771471,0.0026317579445578132,6.936997913147881e-05,2.6215131789673815e-05
2024-03-06 14:09:22.627,0.0006193452311711687,-0.017224429561653223,-9.83621720071223,0.0002971776001615596,7.08280172172502e-05,0.0009294704605854209,-0.0025176458717477614,6.156122979819092e-05,1.3188836983703382e-05
2024-03-06 14:09:22.682,0.0008228757060588932,-0.033924621701153734,-9.893171764396355,0.00021449478165316252,7.15186962922785e-05,0.0009298724619915495,-0.003307286880017597,3.070460964764618e-05,1.583935601807109e-05
2024-03-06 14:09:22.735,0.0010015953059270822,-0.0022401691085264324,-9.810030646332015,0.0001777522416719505,7.358482149751206e-05,0.00093069278847813,-0.0014696265467094532,8.401742453058272e-05,3.269305918205073e-05
2024-03-06 14:09:22.786,0.0006439183841821489,0.0467836018804275,-9.746860063551122,0.0002778992227637363,7.699738962672942e-05,0.0009310269951242078,0.004006003620767206,0.00013277823101371457,1.3626340903014786e-05
2024-03-06 14:09:22.837,0.0010244305567540675,0.03826023039609729,-9.795590024837207,0.00034660104376118807,7.948878980855933e-05,0.0009312289526843974,0.002748163919878789,9.710030961730807e-05,8.256340673493474e-06
2024-03-06 14:09:22.891,0.0012253052305001436,-0.0062065919686273814,-9.852008891801859,0.00030180440939948943,8.142386350984158e-05,0.0009327394563350832,-0.0017917975065087556,7.908974800067032e-05,6.025391499825911e-05
2024-03-06 14:09:22.950,0.001257618472957013,-0.021643162353673223,-9.832202269283762,0.00021835418166384567,8.21774726011829e-05,0.0009332176520750231,-0.00333798121035305,3.326197288204137e-05,1.8848913994187823e-05
2024-03-06 14:09:23.004,0.0017418766983903252,-0.006788692049183143,-9.784193058503936,0.0001943260584454709,8.163268564607939e-05,0.0009331772606588476,-0.0009611447324774657,-2.0894858109919222e-05,-1.6905706788901813e-06
2024-03-06 14:09:23.057,0.0014665302486827608,0.028442996076221763,-9.784769640282494,0.0002796873614812666,8.13237104559016e-05,0.0009329467396529658,0.0034144399345395577,-1.5547780583297688e-05,-8.937630096334781e-06
2024-03-06 14:09:23.112,0.0011185371286824347,0.022831568050054728,-9.823656733141751,0.00023958833658537586,8.18136960617708e-05,0.0009340607266491124,-0.001603945696550717,2.11064760978366e-05,4.4424034943414875e-05
2024-03-06 14:09:23.168,0.0007389557471549552,0.018274555641828196,-9.834713394222424,0.00018472225928977296,8.095007707270945e-05,0.0009352389179161262,-0.0021946782513440925,-3.248613322996293e-05,4.695417453928454e-05
2024-03-06 14:09:23.227,0.0015710888128082458,0.025102800454107045,-9.807248227140251,0.00032112005682680394,7.995601578074545e-05,0.0009361795183382579,0.005455869491831459,-4.48527567042231e-05,3.808043977323331e-05
2024-03-06 14:09:23.288,0.0011966345937316463,0.01618687095256687,-9.788707644469953,0.0003741197602344928,7.988699451689879e-05,0.0009368668748182981,0.00211998255734554,-4.7351824840966824e-06,2.7665602835605823e-05
2024-03-06 14:09:23.341,0.0008771093727717381,-0.0254624823085099,-9.806744661048075,0.00026690961491484736,8.002464632784252e-05,0.0009371581802635752,-0.004288399910267247,9.526773196314713e-06,1.1307308412953842e-05
2024-03-06 14:09:23.395,0.0013634279219298516,-0.0373184804128229,-9.825804176632303,0.00017316268250324428,7.966343296991257e-05,0.0009380501148963442,-0.003749892107260568,-1.0928156804327174e-05,3.537937478753711e-05
2024-03-06 14:09:23.450,0.001193086996129045,0.012823291154123983,-9.814756828776936,0.00018772856806842904,8.146036153192507e-05,0.0009387416187497516,0.0005827003508771254,7.133577236537964e-05,2.769319898289849e-05
2024-03-06 14:09:23.500,0.0007715301510030344,0.04127934494747705,-9.800728317501822,0.00026845933509853407,8.408618048287033e-05,0.0009390255379951211,0.003229326980090186,0.000102004426128256,1.1592575737366817e-05
2024-03-06 14:09:23.551,0.0011634576553566033,0.03713162283096438,-9.805349539897566,0.0003225244901830467,8.509287116488003e-05,0.0009393157438462807,0.0021626421657742335,3.824067359135681e-05,1.1777809543285417e-05
2024-03-06 14:09:23.605,0.0015291512865056604,-0.0002997276027117784,-9.815113897835083,0.00029559064072162927,8.683592945584125e-05,0.0009405624422377159,-0.001077292373836401,7.074899234919604e-05,4.975539093218527e-05
2024-03-06 14:09:23.661,0.0011005662602988446,-0.017191464669115655,-9.814343880366964,0.0002228915835903182,8.733304841950743e-05,0.0009412181708315572,-0.0029079446680294794,2.2625670789902886e-05,2.597169825892655e-05
2024-03-06 14:09:23.714,0.0018944561825846179,-0.007867358171220154,-9.807532746173283,0.0002012476464187822,8.589438087272828e-05,0.0009416554308606173,-0.0008658127837803889,-5.6728301831888784e-05,1.7426220449115944e-05
2024-03-06 14:09:23.767,0.0016767005376423104,0.01839126140524492,-9.804863389536708,0.0002486109879056104,8.574144659762232e-05,0.0009416445942251765,0.0018945271371666205,-7.901429503085012e-06,-2.687296814096296e-07
2024-03-06 14:09:23.820,0.0010435081490420138,0.026096480706553293,-9.811532776441265,0.00019139052780403406,8.454639330299914e-05,0.0009427412376105442,-0.0022888661512452694,-4.56384893569343e-05,4.367830147405083e-05
2024-03-06 14:09:23.875,0.0014473242908160829,0.024528008788410504,-9.81537010466319,0.00022278727492003715,8.262186536037375e-05,0.0009442155722565399,0.0012557919146719977,-7.815187374396717e-05,5.9097016233244926e-05
2024-03-06 14:09:23.926,0.001284914397180392,0.03290624861756812,-9.810800011874363,0.0003644749814918894,8.185529370890887e-05,0.0009444207129432425,0.005667476344848243,-3.601100451650298e-05,8.687393613757231e-06
2024-03-06 14:09:23.980,0.0013419981131987612,-0.0032333630371257174,-9.804804809349546,0.0003596470266723239,8.122910056507798e-05,0.0009452703111068437,-0.00019314452395536818,-2.4853109047557717e-05,3.3977072896203366e-05
2024-03-06 14:09:24.034,0.0009050093890316836,-0.04326539423392028,-9.808086138020835,0.00021566451949005114,8.371107630861935e-05,0.0009454513212616765,-0.00575920469337114,0.0001047245740148185,6.750400786040813e-06
2024-03-06 14:09:24.089,0.000546685499682459,-0.03166926764707038,-9.812660235496542,0.00017948822426918726,8.8001891239483e-05,0.0009459194915015503,-0.0014468905560721234,0.00017300397869406754,1.8574669723855338e-05
2024-03-06 14:09:24.146,0.0012290909238567617,0.023751168700636267,-9.811399317922662,0.00019965322099866692,9.164604710476813e-05,0.0009470864337916478,0.0008067331360142464,0.0001450125268294855,4.671976294438041e-05
2024-03-06 14:09:24.198,0.0015914584918279358,0.0450059866576406,-9.812641050252417,0.0002814568700945175,9.316939070343007e-05,0.0009478776310803196,0.0032721993482236773,5.7843716462222566e-05,3.193163763067969e-05
2024-03-06 14:09:24.251,0.0018393263112038974,0.029066314261436493,-9.809656720336067,0.00032036383777567614,9.207628241884813e-05,0.0009490330960705998,0.0015562323840266894,-4.518461136876946e-05,4.63781204526066e-05
2024-03-06 14:09:24.311,0.001978175438754775,-0.002120042826648281,-9.80545757331109,0.00028906020384700086,9.249188770033236e-05,0.0009504149554879908,-0.0012521341659470556,1.78284814938233e-05,5.515397734373103e-05
2024-03-06 14:09:24.363,0.0007111200264830293,-0.01894942725847169,-9.808736480543798,0.00019944832927422146,9.346186395760272e-05,0.0009508882638552321,-0.003584438346061762,4.220949728949401e-05,1.859254607955364e-05
2024-03-06 14:09:24.416,0.001585547845203427,0.0016740688011608934,-9.812730177818576,0.0002344995858839479,9.273741060912213e-05,0.0009515478653387646,0.0014020196611722548,-3.0305090896429444e-05,2.6522237436731254e-05
2024-03-06 14:09:24.472,0.0016455567234174356,0.025495737116680742,-9.810881968257036,0.0002865083625416634,9.283189493607226e-05,0.0009516043138205072,0.0020803535737006053,1.8005250512804601e-06,2.4504027054286608e-06
2024-03-06 14:09:24.531,0.001286270101287146,0.016109186670941047,-9.809223375962683,0.00022612513302709643,9.240884296715677e-05,0.0009528208094532118,-0.0024153487460690753,-1.461266948194743e-05,4.843900099500653e-05
2024-03-06 14:09:24.586,0.0013431746354890927,0.01083126611260737,-9.809762611707772,0.0002661869042128871,9.150187929042264e-05,0.0009535744140696635,0.0016024328436641008,-3.779732802526642e-05,3.030237030670199e-05
2024-03-06 14:09:24.642,0.0014298782960632122,0.020314885127004745,-9.809966850738684,0.00037590791554161597,9.118317088038005e-05,0.0009536873587481476,0.004388826100812788,-1.6931543893456848e-05,4.925969875211189e-06
2024-03-06 14:09:24.695,0.0012788900523548782,-0.00981994630220754,-9.809320978563864,0.00035050511895225634,9.17087905138729e-05,0.0009545094944955659,-0.0010160944173580985,2.2005325711004287e-05,3.278509558434279e-05
2024-03-06 14:09:24.750,0.0008128675870455509,-0.038428214855343784,-9.809974115054422,0.000227708380954802,9.296460952541884e-05,0.0009548420101441764,-0.004911820753721763,5.492411764059139e-05,1.2837956183421005e-05
2024-03-06 14:09:24.807,0.0012130355649109612,-0.0203083752825618,-9.809366333971095,0.00022843481245917688,9.508316470405462e-05,0.0009551034783831836,2.9137172659967296e-05,8.471681229092198e-05,1.0442091024714722e-05
2024-03-06 14:09:24.860,0.0014097136853516645,0.026869769587168007,-9.808827936416284,0.00023714825202316814,9.533001014984126e-05,0.0009562311918809445,0.00034854257219586813,9.551633157857877e-06,4.51394388257472e-05
2024-03-06 14:09:24.916,0.0017727106705223903,0.03744768262716409,-9.81171354614441,0.00031059983055216806,9.394801677954817e-05,0.00095673140656963,0.00293800716056984,-5.80828609336428e-05,2.0306821817244266e-05
2024-03-06 14:09:24.973,0.001932826113770797,0.015588855875091751,-9.813293907346214,0.00033346566153591716,9.273559396793315e-05,0.0009580179624830915,0.0009145817083895377,-4.935475103510126e-05,5.1564654479015745e-05
2024-03-06 14:09:25.027,0.001039405232830269,-0.0039037043926627504,-9.806834813069015,0.0002608075992728689,9.323232553825811e-05,0.0009591692132946246,-0.0029063065192248285,2.2665516116048005e-05,4.577472699496629e-05
2024-03-06 14:09:25.080,0.0008794238263571698,-0.008869363625132205,-9.806209709386625,0.0002399422331469152,9.601739706135375e-05,0.0009592325489689275,-0.0008345076690965661,0.00011220393389669958,2.4287108166912166e-06
2024-03-06 14:09:25.134,0.0010324145215083117,0.006372225759348005,-9.81180788911674,0.00028744715033657666,9.754864145954215e-05,0.0009600590838755187,0.0019002514088345848,5.9436578293825375e-05,3.322682867220304e-05
2024-03-06 14:09:25.190,0.0015339425953164955,0.016049184034134134,-9.812515414843068,0.0003094822421326141,9.856680922783321e-05,0.0009607885934668485,0.000881439534296112,3.988955173943118e-05,2.925404611717851e-05
2024-03-06 14:09:25.246,0.0015921240941251303,0.0032590522821913086,-9.811050537635035,0.0002545081324764083,9.860928045731207e-05,0.0009614940264166944,-0.002198964591611508,3.81872328121003e-06,2.7999673223494686e-05
2024-03-06 14:09:25.298,0.0018101990512733798,0.0032908890972399673,-9.808934759110517,0.00028026106468493554,9.546780469925155e-05,0.0009624845972343944,0.0010299922489237624,-0.00012663828135872995,3.975992396775494e-05
2024-03-06 14:09:25.350,0.0021001049415864323,0.019252588135307485,-9.80690112323318,0.00036456065619436007,9.371639889839504e-05,0.00096337177163402,0.003371911516879546,-7.328860619841787e-05,3.583575898955806e-05
2024-03-06 14:09:25.408,0.0008845195600832545,-0.0047735270420228735,-9.809756837508083,0.00034553559968871313,9.522084207995282e-05,0.0009635902893755097,-0.000760944805376116,6.091382117702193e-05,8.648360257983334e-06
2024-03-06 14:09:25.461,0.0007191977658209143,-0.03154830937084725,-9.812783821996325,0.00024913253781424046,9.50254852680539e-05,0.0009642707640027877,-0.003856130949244983,-4.091836532331062e-06,2.6853012999076433e-05
2024-03-06 14:09:25.513,0.0015552407433270742,-0.012158596350699975,-9.80947623002968,0.0002392828697623094,9.570728639289883e-05,0.0009647962645846838,-0.00039396225748685636,2.7656964433166365e-05,2.0975981300080726e-05
2024-03-06 14:09:25.567,0.0012848393866084261,0.020066355735529794,-9.807299449879423,0.0002645365974130477,9.498613068882688e-05,0.0009660120415326067,0.0010101162251546039,-2.980790598745481e-05,4.873567560881741e-05
2024-03-06 14:09:25.620,0.0017140708659866169,0.039026482670015836,-9.811078849839957,0.00033431127976870105,9.179439160490132e-05,0.0009665303021722166,0.0027908608763555897,-0.00013035859435363747,2.103920393554745e-05
2024-03-06 14:09:25.675,0.0018690348291707096,0.008869476314362572,-9.813613723503146,0.0003462657553813558,9.265156996970683e-05,0.0009673332715492648,0.00047820900230182003,3.383608212064223e-05,3.2150975556713044e-05
2024-03-06 14:09:25.727,0.00040496066193164497,-0.01572002162587304,-9.80800595115097,0.00029294567664893975,9.40350221535886e-05,0.0009681649000485985,-0.0021327518376559056,5.741088609415886e-05,3.3050790902629376e-05
2024-03-06 14:09:25.780,0.0011486188037811477,-0.014432119083991904,-9.806575439744305,0.00022153558514991667,9.678116695268374e-05,0.0009684598555499288,-0.002856297190321164,0.00011261377300929109,1.1504784439145023e-05
2024-03-06 14:09:25.833,0.0012213409976577056,0.006294976375330547,-9.810423105646317,0.0002849139504510434,9.78696777907306e-05,0.0009689905769019253,0.0025351735890634685,4.1091363574805546e-05,2.146259246639141e-05
2024-03-06 14:09:25.884,0.0017703793287580174,0.027150827538275902,-9.812282584210474,0.00031948464370084266,9.884080611714132e-05,0.0009695032011102625,0.0013828627585429037,3.751176456365047e-05,2.062835822387698e-05
2024-03-06 14:09:25.938,0.0014502340711833094,0.003895666983728631,-9.812234062306642,0.0002526641115611502,9.80205964306154e-05,0.0009703944364582494,-0.002672855420968513,-3.0208109526861813e-05,3.539296375396886e-05
2024-03-06 14:09:25.990,0.0019490607866939622,0.006217956775138578,-9.80914691438294,0.0002976469921813115,9.612780562192695e-05,0.0009706884312664208,0.0017992398385900258,-7.745408133743517e-05,1.1959254273531484e-05
2024-03-06 14:09:26.046,0.0015842771674785664,0.014040552231218681,-9.805752150627448,0.0003691166829103267,9.548181460336038e-05,0.0009715462137325655,0.002858758082012498,-2.8601839625399094e-05,3.459678018054742e-05
2024-03-06 14:09:26.099,0.0008879703704011584,-0.010412526628980422,-9.809554647386738,0.0003076754713710128,9.505276003071658e-05,0.0009778734011398537,-0.002457688087381257,-1.4696627847679065e-05,0.0002528575601349059
2024-03-06 14:09:26.150,-0.00032246138804091647,-0.01657931016703706,-9.802717343029952,0.00027395040213938783,9.782120617966233e-05,0.0009786797603588222,-0.0013488970305004083,0.0001120657495250927,3.2095490728031354e-05
2024-03-06 14:09:26.215,0.0030467608811577153,0.03697513541875244,-9.787335620118196,0.00035204742210588987,9.969902378747981e-05,0.0009796545975835453,0.0031239490801108303,7.206923609798832e-05,3.927384645388226e-05
2024-03-06 14:09:26.269,0.0016394871312326578,0.03329649618865349,-9.85027011263764,0.00045301773632610404,9.854772739445235e-05,0.0009811479328390251,0.004038759963502565,-4.998120144505079e-05,6.0158948100251386e-05
2024-03-06 14:09:26.323,0.002056792293466132,-0.004362246588412776,-9.841162057687283,0.0004549958111776764,9.833567230781627e-05,0.0009812063718708328,7.911441225494696e-05,-8.558762546232892e-06,2.349253480117207e-06
2024-03-06 14:09:26.380,0.001320794791375022,-0.03979513006969603,-9.785378259556097,0.0003555938763360752,9.904947815577686e-05,0.000982239537880235,-0.003976051850352519,3.246815103223591e-05,4.0924323567422736e-05
2024-03-06 14:09:26.431,0.0007716426554923,-0.03978224094445273,-9.775766917910323,0.0002610646381543821,0.00010130691975687576,0.0009826498135151937,-0.0037810808260964122,9.401583805770974e-05,1.601215088933851e-05
2024-03-06 14:09:26.487,0.0012289343245084946,-0.00092411189756529,-9.817533287504503,0.0002559908077019377,0.00010316421610862091,0.000983586433672723,-0.00020288397652773476,7.450083732881706e-05,3.742520117710062e-05
2024-03-06 14:09:26.540,0.001333303082783077,0.03212997507675407,-9.836628752138402,0.0003080219210645273,0.0001051636852634957,0.0009844332811054584,0.0020813187154278523,7.794214941811066e-05,3.406467852086172e-05
2024-03-06 14:09:26.593,0.0012487653723696687,0.029283464239779608,-9.812719747006234,0.0003878958639293292,0.00010565969157575765,0.0009852133520323737,0.003194972589998159,1.6707269331004362e-05,3.153249493671222e-05
2024-03-06 14:09:26.646,0.0020064300612977573,0.002303531236703188,-9.792324156119925,0.00033323842905525554,0.00010217363536129797,0.000986829040970133,-0.002186440432756549,-0.00013726673226894474,6.444237529850749e-05
2024-03-06 14:09:26.700,0.0022029271894592334,-0.01971625160453048,-9.79891959601557,0.0003277399004163506,0.0001006884232107246,0.000987476660787308,-0.00022000227729633044,-5.918292459676196e-05,2.5901725552978404e-05
2024-03-06 14:09:26.755,0.000988331741732839,0.010026881910886113,-9.802678786277195,0.0003778301522494861,0.00010051513712411582,0.000988349408250299,0.002003598870414174,-8.896683020587985e-06,3.511506853499209e-05
2024-03-06 14:09:26.815,0.0007982379334524214,0.0035804831559406443,-9.83362253614259,0.0003840737151455204,0.00010070720879826112,0.0009893962689652668,0.00024974580319863336,7.452126571275774e-06,4.1896694224456425e-05
2024-03-06 14:09:26.866,0.0009566644280668304,-0.010861866515142432,-9.82452481887232,0.00033812226321529017,0.00010213899516912532,0.0009905439064065648,-0.0018380052949391768,5.9105459626781375e-05,4.570047938647541e-05
2024-03-06 14:09:26.919,0.0012817873044331826,-0.01809765426957538,-9.797784686380048,0.00033115224524422134,0.00010172108612034542,0.0009914851257540654,-0.000278820972429426,-1.642772662990552e-05,3.762575717633297e-05
2024-03-06 14:09:26.977,0.0017858630660476478,0.0076312545856720695,-9.795224853273046,0.0003494024616345045,9.859456125633756e-05,0.000992523719169883,0.0007298802538023189,-0.00012577017263719996,4.1661954890919773e-05
2024-03-06 14:09:27.028,0.0021787195111924594,0.006696655532572423,-9.813834353810593,0.00037815797595720384,9.803016405825785e-05,0.0009934592215269898,0.0011501940148549365,-2.370329762489293e-05,3.754249852735538e-05
2024-03-06 14:09:27.081,0.000664055525312837,-0.012931284913680953,-9.82373729254063,0.00037446619111450763,9.808945739704927e-05,0.0009935614926563335,-0.00014766937401883447,2.5199646220896315e-06,4.075428066665426e-06
2024-03-06 14:09:27.137,0.0011436005561578026,-0.018220400623665953,-9.808661136551091,0.0003040395829185306,9.867373358006413e-05,0.0009949201982846724,-0.0028170452112440177,2.618641656911087e-05,5.406406902727924e-05
2024-03-06 14:09:27.188,0.0007492208893588106,-0.021660544888436294,-9.79584818744263,0.0002445094449829367,9.988925675884142e-05,0.000994718466842821,-0.0023811552374177272,5.098798710401231e-05,-8.316616120965668e-06
2024-03-06 14:09:27.273,0.0015793753550667146,0.031667663866926814,-9.794077184518859,0.00034160542817556253,0.00010250247116286986,0.000995152377082256,0.003883939760205458,0.00010067127448685094,1.7710180915839104e-05
2024-03-06 14:09:27.328,0.001026599610565301,0.04195479492314261,-9.824633783608373,0.0004691035040312862,0.00010728736760305615,0.0009961010520827575,0.005100107323982488,0.00018633862627821305,3.838270813760686e-05
2024-03-06 14:09:27.382,0.0010278228467750338,-0.00895839905948066,-9.841826556312709,0.00039782005469286244,0.00010494035851855897,0.000998089046358082,-0.002851438644000685,-9.100855699876926e-05,7.925019991481013e-05
2024-03-06 14:09:27.435,0.002920283700396889,-0.06288360420145786,-9.785575234271272,0.00029774384094378943,0.00010470248285026692,0.000999758997834678,-0.004003063249184921,-5.499830964923307e-06,6.637985006022247e-05
2024-03-06 14:09:27.487,0.0008819660628798414,-0.015283720493878699,-9.769975488755154,0.00029270724851069907,0.000107149845999158,0.0010000146468653788,-0.00020136682289171112,9.80988767188732e-05,1.0176169339854587e-05
2024-03-06 14:09:27.549,0.0008552769392818092,0.020737921219718194,-9.839667098761515,0.0003374144746137893,0.0001115398584365285,0.0010002726680240833,0.0017884626890167028,0.00017381563802835285,1.0453877436653255e-05
2024-03-06 14:09:27.605,0.0007521336369523605,0.00992124078663721,-9.856406689922567,0.0003599189310183061,0.00011531822666394649,0.0010000863357926767,0.0009003298933538336,0.00015023157480121397,-7.40693215923883e-06
2024-03-06 14:09:27.661,0.0015651089763775862,-0.014395614196658647,-9.800746105762151,0.00035062435346002363,0.00011510019524709421,0.0010003742935579454,-0.00037179298150079467,-8.345411540065483e-06,1.1478370458267276e-05
2024-03-06 14:09:27.713,0.002579962224685053,-0.016795161193740114,-9.771165346419968,0.000296149451067424,0.00010936077485403452,0.0010026286358526643,-0.0021792346128013695,-0.00022737023320956162,8.999030532734396e-05
2024-03-06 14:09:27.796,0.002563768012905511,-0.003558219747038067,-9.803485404720758,0.0002884678672255029,0.00010671928364296478,0.001003796512669052,-0.0003073741232018664,-0.00010533804928866285,4.6711871373323906e-05
2024-03-06 14:09:27.851,0.0005966409248376516,-0.0003184551408085087,-9.836941769640866,0.0002577267724413324,0.00010568091073492837,0.001003996871784567,-0.0012296857496596697,-4.029854752835352e-05,7.89354268887173e-06
2024-03-06 14:09:27.910,0.0007451204554279952,-0.0007645667074678098,-9.82054602275803,0.00027580933105723367,0.00010519463607861716,0.0010044998971154707,0.0007232803615270234,-2.0171595643648656e-05,2.0203031304628956e-05
2024-03-06 14:09:27.979,0.001022811394782091,0.019156307586928045,-9.789616335862844,0.0003475211648175575,0.00010620439110284454,0.0010048456277231923,0.002868511136260585,3.7513720372030444e-05,1.411805084013827e-05
2024-03-06 14:09:28.041,0.0011060622569398263,-0.00605398614319404,-9.79773690953424,0.0003400594290959265,0.00010601213772008406,0.0010054730518049171,-0.00029847967383384185,-7.381688854819109e-06,2.5067789001587937e-05
2024-03-06 14:09:28.113,0.0016018850409119801,-0.02714729497007253,-9.825667179088084,0.00020598248943945767,0.00010497077097668535,0.0010063523128824815,-0.005363120618290595,-3.625504868121255e-05,3.460973504937081e-05
2024-03-06 14:09:28.169,0.00153090496273764,-0.011709844887686867,-9.822688437106917,0.00024290384168867168,0.00010170108545551907,0.0010075470741845883,0.0014767169022293575,-0.00013226193308534808,4.79776443100805e-05
2024-03-06 14:09:28.221,0.0018612173019389845,0.030906671132406704,-9.797862731208093,0.00037929418387868253,0.00010197317891388397,0.0010076993625571361,0.005455621505710651,5.389504155095425e-06,6.644712062432742e-06
2024-03-06 14:09:28.310,0.0005528519914176811,-0.004053422220125938,-9.796571918180987,0.00037264826624345377,0.00010346676597282945,0.0010080887738047792,-0.00026577798776915187,6.0017127819489305e-05,1.5526992295367796e-05
2024-03-06 14:09:28.364,0.0006661772967705081,-0.05197649405597947,-9.814950916392267,0.00025194139550294224,0.00010592262500069061,0.0010085795579823885,-0.004828175629096216,0.00010310649075707357,1.910613864042267e-05
2024-03-06 14:09:28.418,0.001270508058631992,-0.03219567285542615,-9.820273890314654,0.00016123430037529916,0.00010597846260343232,0.0010093659616283628,-0.0036282830937932413,5.897946522698644e-06,3.1071059980094657e-05
2024-03-06 14:09:28.475,0.0020169265846270955,0.025760123803323307,-9.808241762015662,0.00022711236239992272,0.00010519451101763103,0.0010105958795452656,0.0026350843579777067,-3.400659869510265e-05,4.948381656182543e-05
2024-03-06 14:09:28.528,0.0017965498442908765,0.03843809108057861,-9.80603760098301,0.00032639878816621034,0.00010355686554027141,0.0010109136052438932,0.003971387621762267,-6.95150138511697e-05,1.3149692402102517e-05
2024-03-06 14:09:28.583,0.0015700919839250823,0.029073548768486022,-9.801692701982029,0.0004649348972513177,0.00010276926523018644,0.0010124440045611266,0.005541403829639447,-3.7077139856358724e-05,6.180748819630337e-05
2024-03-06 14:09:28.635,0.00082506541676756,-0.007432287258649222,-9.802945330785391,0.0004631579611906554,0.00010426688192647634,0.0010131815560027087,-7.10198224762493e-05,5.999025682478167e-05,2.946699250038924e-05
2024-03-06 14:09:28.690,0.0010679777351251057,-0.06507477935568633,-9.834720099744644,0.00028023869831796626,0.00010761748522777203,0.0010140433815485446,-0.007316635135277845,0.00014144679647378193,3.367119679879781e-05
2024-03-06 14:09:28.749,0.0008425585688184778,-0.04284883026435881,-9.81432106296497,0.00017967820149715556,0.00010828736402061349,0.0010153113388624401,-0.004022396199814307,3.088310850701457e-05,5.028009543991663e-05
2024-03-06 14:09:28.815,0.001945944266822159,0.04146535250994332,-9.779043776233465,0.0009583906643186738,0.00031574988609879274,0.002018437529793615,0.031144265861274133,0.008305334163707542,0.0401205427494271
2024-03-06 14:09:28.869,0.3170563386830052,0.081668872767227,-9.830245653779686,0.0013134294132498936,0.0012789539447184985,0.006437969356921976,0.014053235229144739,0.03873155509597872,0.1767370467449139
2024-03-06 14:09:28.934,1.2245409016482662,-0.28179742983721645,-9.812061953903028,-0.0009397976546149882,0.0037224690332626014,0.01405648767556685,-0.09063301438264512,0.09803592236109995,0.3047386004126062
2024-03-06 14:09:28.992,1.2427212582225593,-0.1634065001474109,-9.769507778580396,-0.003475412766294671,0.006468718014402611,0.024068920218056726,-0.10247470565212068,0.10989870104000618,0.400589877832923
2024-03-06 14:09:29.047,1.4238074016639823,0.7227912947682374,-9.87792256868067,-0.0028010272230890145,0.007141449212031006,0.03450536074162912,0.024610014117171918,0.025138857599378575,0.41788251935640164
2024-03-06 14:09:29.100,1.2765292636090961,1.3380735379727844,-9.855094363345009,0.0012027734181579224,0.006655400791604537,0.04558207159342268,0.15644849784310705,-0.024334835642629175,0.44459228082220964
2024-03-06 14:09:29.154,1.0139712815056225,0.5635254108442032,-9.767227435364761,0.0018820390927696683,0.004875664812305892,0.05683586249768294,0.021734876744881046,-0.07141922828818256,0.4510243886823145
2024-03-06 14:09:29.213,0.7065363416603269,-0.7092241624936626,-9.72842825935237,-0.0007412657477755648,0.0037983846244473212,0.06813667278451227,-0.10894670210951765,-0.03730412818383245,0.4523694492415956
2024-03-06 14:09:29.273,-0.0362083531481903,-0.7184151875494401,-9.651480342982804,-0.002488363810296925,0.003978713391341423,0.07940554009726462,-0.07109469515955241,0.010948852032545225,0.45175504878696293
2024-03-06 14:09:29.327,-0.17252929445915482,0.4017683384682189,-9.788337443764126,-0.0014447868641487044,0.004913008568407719,0.09060105419945173,0.04232791929558253,0.033454733539561354,0.44967556966883215
2024-03-06 14:09:29.379,-0.0007447116887380405,0.7712799403822613,-10.00144368962047,-0.0008830316695552025,0.005479133893163743,0.10154519610519254,0.021994924018525923,0.02033446481230342,0.43993703136506196
2024-03-06 14:09:29.431,0.04109714450691419,0.4171889924807347,-9.91686237439515,0.0008746460578557787,0.005591804945974256,0.11257748202254492,0.06796714057815856,-0.0020303551292285213,0.44423389454248624
2024-03-06 14:09:29.484,0.21400998959829148,-0.020111104231289294,-9.749223480736466,0.0015359038023226436,0.004956604432967724,0.1237497889449486,0.021277456178971244,-0.027298382079958494,0.45021384134084297
2024-03-06 14:09:29.540,0.14201998618150194,-0.6009588290594603,-9.694390749173307,-0.00013003498964974077,0.004228280602629008,0.1349379934679251,-0.0716320049936936,-0.02049535324872291,0.4509718470084635
2024-03-06 14:09:29.593,-0.14494887621384794,-0.5758569982744521,-9.738207890979384,-0.001599025206006123,0.004199785305015848,0.14613873330384347,-0.060353576292067716,0.0063283726432836526,0.45228707474274377
2024-03-06 14:09:29.649,-0.34814254633475106,0.23048937492869562,-9.816114790158482,-0.0014129244592051757,0.004842571257385609,0.15720794496019738,0.00888457907862507,0.02402609966010093,0.4480317264200713
2024-03-06 14:09:29.715,-0.32927830216410253,0.6421364709831914,-9.872679595363644,-0.0007844865647177428,0.005541668503136317,0.16801647048016957,0.026768255087682054,0.023693522002609723,0.4383343458347086
2024-03-06 14:09:29.773,-0.3074140738550408,0.3999407579281013,-9.843058789152654,-6.213784286570966e-06,0.005837836367392669,0.17876516480301252,0.03016315550271257,0.006859867188632858,0.43674223994903166
2024-03-06 14:09:29.826,-0.1442180936177049,0.04600031133821152,-9.87056791465826,-0.0004630685180937826,0.005584791698669388,0.1897066370053365,-0.02227386447853094,-0.006464163249082479,0.4451563857683652
2024-03-06 14:09:29.880,-0.13408911999916182,-0.1355062956675458,-9.820255356996299,-0.0008914881340974409,0.005060818083882864,0.2007270654949519,-0.023110933699252902,-0.017302403854653196,0.44932600811706197
2024-03-06 14:09:29.934,-0.2079262299423686,0.14229379173125292,-9.739563710319112,-0.0011060462187469672,0.004934588332013594,0.21173127009193918,-0.011695220778684288,-0.0032783507211438037,0.44978274024316167
2024-03-06 14:09:29.988,-0.4628989891221528,0.34570475213141894,-9.746659177281318,-0.0007097423814483328,0.0053660828610881195,0.22272984018798014,0.01671435218437252,0.013698011597254173,0.45081061007375883
2024-03-06 14:09:30.051,-0.49904998408020546,0.24916823221013898,-9.81411505442125,-0.001386352024502397,0.005676894560781791,0.23326005925403415,-0.026142566817728786,0.01809729506652663,0.43249674861847165
2024-03-06 14:09:30.107,-0.5965189099219027,0.1672035614937715,-9.825269690632117,-0.0016557166183209357,0.005764824927716288,0.2438463669011114,-0.012268890508093492,0.005803712650390698,0.4359909082758801
2024-03-06 14:09:30.176,-0.31238880300025557,0.4007179492627127,-9.914982034206313,-0.0013060607603865174,0.005438703822728504,0.25466362787970037,0.007883995871484618,-0.01604920404180858,0.44682601163699753
2024-03-06 14:09:30.229,-0.20557855501816952,0.428804221888757,-9.899268294812476,-0.0009177775321675754,0.005420170926537701,0.26551649265555266,0.012367468855325438,-0.004464496025232879,0.44966307454825816
2024-03-06 14:09:30.282,-0.5373734369061,0.25420705453533704,-9.713884633585701,-0.0011275634039935995,0.005260100062062734,0.2763169376074761,-0.012201261575809917,-0.0038195572931898096,0.4487388180616798
2024-03-06 14:09:30.338,-0.48977027802014805,0.2398755723995583,-9.716574944979211,-0.001364801162545742,0.00521347331118944,0.287010538258552,-0.012037307678692372,0.0008738055078499518,0.4457386215410802
2024-03-06 14:09:30.394,-0.5807262634990835,0.2764002346932776,-9.839788356954973,-0.0015945807714751162,0.005389824251973003,0.2973733361094017,-0.0092160215455283,0.009390640516838886,0.4334030232300963
2024-03-06 14:09:30.452,-0.6906665388038442,0.3124820342063124,-9.85407177120665,-0.0013965331399250264,0.00551927197892046,0.3076085234224627,0.006660630310127005,0.002707081953729323,0.42958222376704097
2024-03-06 14:09:30.513,-0.5433154259898357,0.3479217042969476,-9.866416451346838,-0.001220703241490765,0.0054440764317611546,0.318171918952758,0.0032940870308402507,-0.004811006240800909,0.4448965134264702
2024-03-06 14:09:30.566,-0.3588183452494111,0.30032110109098614,-9.84209673297877,-0.001661975085693901,0.005261063115994449,0.3288003202948119,-0.021541219983597298,-0.0012937216814795137,0.44917995812524397
2024-03-06 14:09:30.622,-0.5540195793099715,0.25962603253109595,-9.765399901163397,-0.002295237217163971,0.005086724119757032,0.3393977554449871,-0.028713254719763333,0.0015064391839991322,0.44959891754723913
2024-03-06 14:09:30.690,-0.5656980997236882,0.5052685599483582,-9.768976459076814,-0.002244450197372293,0.005197222449825363,0.3499013554382237,0.0008828644336746104,0.0032985512946713674,0.4475899353769364
2024-03-06 14:09:30.746,-0.5853854452914952,0.7159000897562089,-9.863843020930892,-0.001627028094093779,0.005692100522020891,0.36008682205210824,0.027488427514346277,0.010092186300146543,0.43598873972993957
2024-03-06 14:09:30.802,-0.7278517677956818,0.4776223583181945,-9.839073566912905,-0.0005509145863406722,0.0056702367380717204,0.3687913920363772,0.037786838489497133,-0.015754085981059845,0.3741317485025286
2024-03-06 14:09:30.857,-1.0172353574270352,0.07809041337332587,-9.803909715265599,0.0005179420545836354,0.003921705625430078,0.37449842836741487,0.013095720048567249,-0.08030809760324506,0.24598781541370474
2024-03-06 14:09:30.913,-1.5758656497400736,-0.42143366335135246,-9.7323209081326,0.0006000847099678345,0.0008591823960382882,0.37677773837353745,-0.042887024972614186,-0.11473064930499281,0.09821241931781036
2024-03-06 14:09:30.966,-2.184783074609994,-0.30947166945966414,-9.70206307731083,0.0005111694705765455,-0.001980291822774421,0.376281795307327,-0.04613213108231228,-0.1038627445311349,-0.021443345412152065
2024-03-06 14:09:31.022,-2.4102022774328327,0.33518850841129766,-9.941623912171629,0.0007741936753273562,-0.004245242763102176,0.37186422757619475,-0.02514692481798552,-0.08772935249031927,-0.19044879630313524
2024-03-06 14:09:31.091,-3.118973240193319,0.7600314234042517,-10.133591930555935,-0.00040912256748337403,-0.005889460603308676,0.36390207199330427,-0.07021095668035451,-0.042564388257817734,-0.3421982377501299
2024-03-06 14:09:31.146,-3.348846411526979,1.1421673490544457,-9.759363441050484,0.000429842674877189,-0.005725861312219382,0.3539964999674102,0.03131183710160053,-0.005389833523673735,-0.4247158378701937
2024-03-06 14:09:31.200,-2.5506378133245478,1.1683983944581653,-9.458282466631005,0.0022281483631605716,-0.005170849341246191,0.343642485803706,0.07264570811395876,-0.004800054040180337,-0.44233735467514196
2024-03-06 14:09:31.255,-1.60155256122427,0.6696261453084337,-9.70122470076898,0.002801653304193066,-0.0048580212244619505,0.33332092235723604,0.023416389346470435,0.0034589892375614865,-0.43890876612439766
2024-03-06 14:09:31.313,-1.3480221081416797,-0.07096197795734192,-10.047772980819994,0.0016970224750815993,-0.004866948371999044,0.3230128004007385,-0.044026844380878276,0.014413498440956683,-0.4362983231028877
2024-03-06 14:09:31.367,-1.204331124704378,-0.175338386946467,-9.89683959191775,0.0015033446899078164,-0.004727254825048922,0.3125569656841423,-0.0077142030716128625,0.007848779674421186,-0.4410800901209071
2024-03-06 14:09:31.419,-1.0398346691505815,0.10645043243196835,-9.573808882139387,0.0019687191290126593,-0.004585860445751444,0.3018685081115293,0.017215302819038172,-0.0006296223747017939,-0.4493568024601113
2024-03-06 14:09:31.479,-0.920755990513898,0.11285754708854025,-9.657076008142088,0.0016235933086037916,-0.004779645353149193,0.2911415465948626,-0.017768379816055058,-0.0032569242393767866,-0.4491993744833592
2024-03-06 14:09:31.535,-0.8019180216439357,-0.05580487139527249,-9.94684891096382,0.0010664947399509177,-0.0051112464026357276,0.28044063033135075,-0.027501554440949177,-0.005979838329951051,-0.44652934789084336
2024-03-06 14:09:31.595,-0.6896614846328872,0.10679749868596213,-9.982011458759583,0.001420300638588295,-0.004956797409878353,0.2702230566453772,0.013124673484297794,0.0019841889567131475,-0.42521543438274884
2024-03-06 14:09:31.648,-0.4920195961901923,0.30273046867496667,-9.757471645594524,0.0022761450891575644,-0.004555723033577594,0.260061491778147,0.035184515787387925,0.005801327637428408,-0.4217487876875528
2024-03-06 14:09:31.719,-0.48700874628271346,0.06211327268483405,-9.630163580981696,0.0014601312783277527,-0.004642041465424273,0.24945460611089332,-0.034548763811777385,0.005077522673558708,-0.4386008152660362
2024-03-06 14:09:31.776,-0.5652508400820262,-0.026275979396599043,-9.775593505655165,0.0008405336557657637,-0.004799672219244509,0.23860307776707598,-0.02774620725199005,0.0002602856118441912,-0.44746592636490606
2024-03-06 14:09:31.828,-0.4097043865873257,0.1880126104708592,-9.95458857372029,0.0010926202503336044,-0.004850663495001264,0.22768574637740568,0.007073282533650915,-0.004330970626986633,-0.4491075029788119
2024-03-06 14:09:31.882,-0.29111946132304845,0.3124365992183003,-9.86083652553832,0.0010189154217707147,-0.005052087375013267,0.21699545349601368,-0.006964062948691728,-0.007092414484700884,-0.438557002039888
2024-03-06 14:09:31.941,-0.10821630780675291,0.2760834087558306,-9.681634703871449,0.0013945811432100868,-0.004941447038057131,0.20685689048483222,0.013500857258350958,0.0009504722003757818,-0.4150467704509774
2024-03-06 14:09:31.994,0.02315920318372607,0.19524928148102982,-9.763558583388582,0.0018655732774052953,-0.0043577562322895886,0.19660726716545884,0.021313332315285663,0.018569042687547336,-0.41873980496992447
2024-03-06 14:09:32.048,-0.21168166581004397,0.07919848973318773,-9.916539950535132,0.0012853294948696821,-0.00430619914223317,0.18589903902698107,-0.024304843249407987,0.006415521597624053,-0.43629014360203694
2024-03-06 14:09:32.103,-0.08369651225533138,-0.04448618262972886,-9.843774231120491,0.0005293004603784142,-0.004519687366373612,0.17494050954074034,-0.033323318876313936,-0.002615016074040684,-0.44551188055911844
2024-03-06 14:09:32.158,0.007203226799737134,0.23566799617808518,-9.740568793593898,0.00045520442639172815,-0.004668652376933618,0.16397490650242183,-0.006040779463240309,-0.005172669800939337,-0.4450385019180684
2024-03-06 14:09:32.214,0.06612806732530573,0.45546312523028404,-9.748135789153235,0.0009065159159420857,-0.004918037250552922,0.15335223914817891,0.014020188659475397,-0.012826926892980848,-0.43042111413966544
2024-03-06 14:09:32.294,0.3031027068307269,0.31630646470258506,-9.841841178076434,0.0013006031824222728,-0.004808950352924534,0.14277729733469918,0.014126934770978051,0.0016714832871100576,-0.42779169925804417
2024-03-06 14:09:32.348,0.06310670569684171,0.22306368714518796,-9.924320777747447,0.0013484918314633273,-0.004483091888813753,0.131821386236326,0.001706869491351767,0.012331451311782496,-0.44245846977714076
2024-03-06 14:09:32.405,-0.013422115534052355,0.07495716862234697,-9.854430423513099,0.0011418164232585664,-0.004506721341362164,0.12070341145438875,-0.010390945363303221,-7.661278450566742e-05,-0.4482669715319748
2024-03-06 14:09:32.462,0.2856933783550166,0.0020350772444727465,-9.675395774240434,0.00012395531405712845,-0.004677879334498943,0.1095939617880763,-0.043325612829897726,-0.0016728604573916356,-0.4471613869568388
2024-03-06 14:09:32.518,0.26033053509718057,0.3053275883344868,-9.739693443547592,-1.388043304719247e-05,-0.004759438814267683,0.09856538720184363,-0.00793401131568077,-0.0023894236176722965,-0.4435220983631027
2024-03-06 14:09:32.606,0.3102669403202702,0.5511685522067395,-9.884686857351074,0.0005216189036810179,-0.004949441471883277,0.08779180568281306,0.018412185271770132,-0.009676384006090265,-0.4329170916310924
2024-03-06 14:09:32.664,0.5057042289900913,0.4294283760587245,-9.89007325433778,0.0011211150067170152,-0.004854050756166413,0.07713123128661863,0.02210934457603436,0.0014113348778192094,-0.42799849025949604
2024-03-06 14:09:32.721,0.3172508464848686,0.2505992551165987,-9.813453163498908,0.0008759237600512921,-0.004625234633895441,0.06613545694667183,-0.011136926009315764,0.009665579916405626,-0.4409247201500394
2024-03-06 14:09:32.774,0.1901675187297692,0.138569795638733,-9.773608019152647,0.000416543359916698,-0.004639993702378412,0.05500204821309004,-0.020451991680591523,0.0005892490327414981,-0.4460677415256687
2024-03-06 14:09:32.827,0.4313860745890394,0.19052975808315198,-9.77504830944588,0.00028468300570597913,-0.004775842498604313,0.04379361463914806,-0.007712847775607819,-0.00513331210272923,-0.44885582020948694
2024-03-06 14:09:32.882,0.42575806434361846,0.3973993647798266,-9.81587590592944,5.6911259009144005e-05,-0.004964376722959567,0.03267654353491018,-0.011640017421318209,-0.007051504021959523,-0.44496034042226795
2024-03-06 14:09:32.938,0.4646179122899359,0.43410510964285526,-9.85546717175392,-7.664785578034833e-05,-0.0051888763657636245,0.021767815952957046,-0.007894950748089175,-0.008680945994098235,-0.4364808717124955
2024-03-06 14:09:32.994,0.5482786671261191,0.44516886187148097,-9.815852529733927,0.0008023046549833395,-0.004680135167452855,0.012082174381668214,0.03377127935222937,0.019317028953564318,-0.3876767454490395
2024-03-06 14:09:33.046,0.7392720346545113,0.3906495654507281,-9.817887655727313,0.0023597256476754857,-0.0020343860186467643,0.0060571020569486185,0.06307285791874605,0.10450770897114742,-0.24155594333122474
2024-03-06 14:09:33.100,1.4858777278291395,-0.24398079118177263,-9.745604175118904,0.0017310866118239252,0.0016456462595048759,0.0038334969084459123,-0.02410768874706305,0.1471958155986331,-0.089153470934437
2024-03-06 14:09:33.159,2.1015094293495817,-0.5353128457898692,-9.623631750414875,0.0005805567315270117,0.0036444613013789694,0.003303991164571055,-0.04563667056440188,0.08011610090836088,-0.021302488054771286
2024-03-06 14:09:33.214,2.31444299636726,-0.17464018063000478,-9.942668204124944,-8.699298246026097e-05,0.003767420219810958,0.003168456380609213,-0.02666496785113961,0.005007030303352066,-0.005518177596235112
2024-03-06 14:09:33.267,1.8317989018543213,0.3084009250361033,-10.12832111069525,-1.0505319387010654e-05,0.002394548088703438,0.0030436252540605095,0.0028974622235241054,-0.054924554403408904,-0.00498304718108598
2024-03-06 14:09:33.319,1.460525527841596,0.5031554138651806,-9.74495820981183,-0.00022140518003807702,0.00022322041506167418,0.00301075123739765,-0.008700092005958091,-0.08682682074041088,-0.001355307005090851
2024-03-06 14:09:33.375,1.1471087383082643,0.5216815523051106,-9.521807650465341,4.989281643078737e-05,-0.0002748652086479519,0.003033254971812621,0.01079213647569857,-0.019955962657905935,0.0009035477419638253
2024-03-06 14:09:33.426,0.3335492818048099,0.6077288215801401,-9.772756231566362,0.0008462407021185491,0.00014576843221212048,0.0030525851774791785,0.0319047088865303,0.016729285110102646,0.000750313509668985
2024-03-06 14:09:33.479,0.5349483407033929,0.4031680551133391,-10.116253592140103,0.0010871589634490178,0.0009626382196778638,0.003041802565936509,0.00973689272495521,0.03264474039402694,-0.0004654152232680939
2024-03-06 14:09:33.534,0.6595713384327122,0.10747582017500713,-9.855005515175609,0.00040920825826638624,0.0014983104348054908,0.0030284732673834867,-0.027051880240895908,0.02150906932389978,-0.0005680083328638713
2024-03-06 14:09:33.589,0.8272225633837741,0.058372582999754945,-9.544543654870496,0.00016395376156984426,0.0011658207077672427,0.003016391259030862,-0.00984985053622083,-0.013269911430794337,-0.0004958682269462783
2024-03-06 14:09:33.647,0.9431254602042973,0.28219745114485734,-9.732861727125991,0.00024702401504512453,0.00022762229451116822,0.0030101758436285116,0.0032096595912761944,-0.037537858553792845,-0.0002356557454847201
2024-03-06 14:09:33.700,0.7940638433236107,0.34731046713391894,-9.966415066004574,0.0003114342767152868,-0.0004763272127604151,0.003027041983815556,0.002491968376759914,-0.028165398276733325,0.0006839583475074691
2024-03-06 14:09:33.753,0.4863680916968522,0.2883495422258725,-9.947346982253068,0.0007287786193940725,-0.0003283872272694265,0.0030461308559745185,0.01671186418608329,0.00586758672495013,0.0007513313321406717
2024-03-06 14:09:33.808,0.27362363917771204,0.18504237808551519,-9.756702931977948,0.0006757528065705205,0.0005905459818028334,0.003050530311353005,-0.002009134073596739,0.03676373160844718,0.00015174432658434606
2024-03-06 14:09:33.859,0.2912655843728736,0.07931586938667172,-9.637878843087869,0.0001731850386184868,0.0014438507245255298,0.0030399789921960307,-0.0199978539109696,0.03419329890570916,-0.00043981657256593584
2024-03-06 14:09:33.913,0.533412284260591,0.1398941544668266,-9.796852153130379,0.0002155564891562522,0.0014084631033045108,0.0030233173167709577,0.0016914833557582826,-0.0014207979914165438,-0.0006637221638916579
2024-03-06 14:09:33.966,0.7359402806889691,0.2727352025946646,-9.911707783586255,0.0005850605877409071,0.0006818378124153154,0.0030025151708568646,0.014692800894544713,-0.029110048101007528,-0.0007943878156104491
2024-03-06 14:09:34.017,0.6287932068170481,0.20942018806021234,-9.899432021313315,0.0004695132656327577,-0.00020126094502351762,0.003006098040907734,-0.004727898333070332,-0.035309846165502645,0.00015662438671916527
2024-03-06 14:09:34.073,0.41530258960050337,0.07872284685506933,-9.743207602851477,0.00026154519219863935,-0.0002881092488962636,0.0030105406278898507,-0.00832907680554881,-0.0034488629603505443,0.00018028482441397758
2024-03-06 14:09:34.127,0.11124560914168732,0.11849682515423574,-9.738884496797706,0.00042159858007153277,0.00038556288433039693,0.0030338461083292798,0.0064828837902413975,0.026927880617752673,0.0009189775606300206
2024-03-06 14:09:34.182,0.12523285828123262,0.1467156485322648,-9.810338727825066,0.00042526425163217935,0.001335459101521181,0.0030304119868880142,0.00026211222278874345,0.03799518204768098,-0.00015347758987745163
2024-03-06 14:09:34.237,0.26896752274609764,0.1173694155754671,-9.85170639824399,0.00030727685410101115,0.0015436092384227824,0.0030242273084877358,-0.0046938506391674805,0.008340198762436834,-0.0002562217060814939
2024-03-06 14:09:34.288,0.5517442303114052,0.12683503411032432,-9.824524725740066,0.0007040538459650588,0.0010989019366322344,0.0030171510394509556,0.015817515756495454,-0.01783639792791924,-0.000246080690626953
2024-03-06 14:09:34.340,0.4870847334700437,0.08117172238679629,-9.793944936719544,0.0005793646600612438,0.0002371446426167225,0.003008170842309453,-0.005091466038651999,-0.03445530081902843,-0.0003448860787393874
2024-03-06 14:09:34.395,0.3723444167505342,-0.030250890104232455,-9.802524559266164,0.00016329809521978551,-8.719553903273649e-05,0.003014467796897761,-0.016681594865821905,-0.012923443263345703,0.00025003793497793973
2024-03-06 14:09:34.450,0.07014480346402505,0.061793455800305826,-9.820862858682865,0.00035763907419251404,0.00018393479765785767,0.0030149391559502435,0.007806294788492616,0.010821736602199816,1.4301362303108639e-05
2024-03-06 14:09:34.502,0.04627108317757934,0.16466160632327254,-9.815704356319344,0.0005489736873029346,0.0007778257241531421,0.003013121006763176,0.007725041001639713,0.023732414915733205,-8.435297379086066e-05
2024-03-06 14:09:34.557,0.13293636607843948,0.09799255247565901,-9.782113135896838,0.00034590440011517777,0.0011960394441830535,0.003010452433673585,-0.008072186868277527,0.016752916151076044,-0.00011882539363570467
2024-03-06 14:09:34.613,0.2793962701696811,0.03424356201473003,-9.788135346775034,0.0004308894436649551,0.001018294985972262,0.0030123599526728673,0.0033779015121648765,-0.007119948525203912,8.340770994868355e-05
2024-03-06 14:09:34.682,0.3874212566800564,0.08194150816115023,-9.828662312345786,0.0005656071524889653,0.0003216801272805648,0.003008239246544004,0.005304804316339372,-0.027880792980119,-0.0001436856695306206
2024-03-06 14:09:34.736,0.32828234439492265,0.03065440214332239,-9.856534933035,0.00035627561948264923,-0.00016864731173251931,0.0030144560463062756,-0.008432182368315813,-0.019587731260113896,0.0002529275897851367
2024-03-06 14:09:34.788,0.08535069895755906,0.0288962023577594,-9.797833301416134,0.00038785115798034786,-0.00010122021432991151,0.003015048174431943,0.0012711484948733304,0.0026932732340830467,2.2426051227768154e-05
2024-03-06 14:09:34.847,-0.02141551638632888,0.0685093651756387,-9.761323781844682,0.0004823655366301314,0.0005029299560152255,0.003015304980477905,0.003853424695404173,0.02415450114593098,-1.7905412682547422e-06
2024-03-06 14:09:34.900,-0.004418338875672517,0.0318473826489956,-9.797710180577617,0.0002252198921282134,0.0010482872209819506,0.0030123991777603926,-0.01021986774555328,0.021845185541514937,-0.00012630672652945153
2024-03-06 14:09:34.951,0.17805607231020956,0.05568860278046342,-9.84280668014368,0.00022517145540538907,0.001073690754415448,0.0030151676607545756,1.0049881168907835e-06,0.001016168402322441,0.00011051209368579556
2024-03-06 14:09:35.007,0.303560741437508,0.1323361483526942,-9.842007512280361,0.0006254948867648128,0.000605597121139667,0.0030124672681990754,0.01595647853126233,-0.018771998636743344,-7.914563939375123e-05
2024-03-06 14:09:35.060,0.2723501356529473,0.05520487531337548,-9.803149756080808,0.0005196929126287305,5.042198752767228e-05,0.003014599291962734,-0.004298961998402563,-0.02219411093546403,9.4194219818411e-05
2024-03-06 14:09:35.116,0.1246534010443618,-0.02905503686873067,-9.772657045716876,0.00028600919613653615,-6.484551008194742e-05,0.0030161970099622645,-0.009361202115559658,-0.004582482069180702,6.475015011936345e-05
2024-03-06 14:09:35.169,-0.038965718308695,0.028276597843871928,-9.813648275569022,0.00042840097494860276,0.00028401333660122503,0.0030133303359266557,0.005737770097909963,0.013937060588189045,-0.00012101634074654632
2024-03-06 14:09:35.221,-0.03811157913302021,0.07989572789258592,-9.83355017238198,0.0004354603983634863,0.0008283570811068499,0.003012560814112225,0.0003480229838053084,0.021772788141841123,-4.0181286902720216e-05
2024-03-06 14:09:35.285,0.05297466453471417,0.04983168746329279,-9.81048205836249,0.0002875999061094811,0.0010109851536500996,0.0030126760251660664,-0.005892384636339478,0.007322910385921472,-2.3793492632855156e-06
2024-03-06 14:09:35.341,0.21293263496755213,0.05033872236809708,-9.791559354057977,0.00043855237379037987,0.0007785993355530026,0.003017553758993857,0.006009912977607328,-0.00931349507301759,0.00020526881285435413
2024-03-06 14:09:35.404,0.2157408750764703,0.06903525390471522,-9.80401271953746,0.000455066588000682,0.0002904870948079512,0.00302153237863918,0.0006016032724370558,-0.01952632221635719,0.0001684853721015677
2024-03-06 14:09:35.464,0.14737028568900695,0.0323344290439916,-9.821941888966565,0.00029765442959952095,4.565949493180992e-05,0.003023911829306842,-0.006326052898306661,-0.009774006038444631,9.624801251981086e-05
2024-03-06 14:09:35.517,-0.00599939456759568,0.049526695341699324,-9.772711434952651,0.0004291907131233131,0.00018850035177258662,0.003019048492169399,0.005278742141250544,0.005697614019557171,-0.00019673892258920996
2024-03-06 14:09:35.574,-0.04648193714504242,0.08085910428891487,-9.831470901700653,0.0005547442103969278,0.0006306730849499235,0.003017534807452981,0.005075560764378999,0.01767163241565539,-6.940505289440488e-05
2024-03-06 14:09:35.627,-0.016111928524488252,0.0293813313561162,-9.84886307055874,0.00037639591350681475,0.0009164096177745226,0.003016405532325026,-0.007099361488393397,0.011450920384379917,-5.396179227735813e-05
2024-03-06 14:09:35.680,0.12264511169176485,-0.00016038538126307127,-9.803561959432754,0.00029997532376784084,0.0008483851166243108,0.003020548044266519,-0.0030651576282461584,-0.002711698587389945,0.00016370586003519366
2024-03-06 14:09:35.735,0.17537578427543396,0.07063128497188861,-9.777253494933314,0.0004415549568338143,0.0004803046136337415,0.003020906280080355,0.005618680386141968,-0.014740251981724083,2.5597975339413918e-05
2024-03-06 14:09:35.791,0.14598546401980925,0.06676681233618183,-9.810237213669254,0.0004028045053468229,0.00017095746011099963,0.0030233185574409347,-0.0015874082270699603,-0.012369108293525746,0.00010070576964700363
2024-03-06 14:09:35.848,0.026598449231571602,0.03024117233570452,-9.840919541300371,0.000371802619194055,0.0001703311814306312,0.003022835760322289,-0.0012401423253303625,-2.1309153896972205e-05,-1.95160062332606e-05
2024-03-06 14:09:35.904,-0.048350719111960684,0.03207665188240656,-9.813717007171766,0.0004631803006509981,0.00045886143720184734,0.0030174987823691412,0.0036900785298175968,0.011530009223837444,-0.0002181966350878856
2024-03-06 14:09:35.957,-0.03622200248022831,0.03426676358726812,-9.777290375305517,0.0003631227045230826,0.0007753455545060874,0.0030167103200405454,-0.003964056054374443,0.012671373525433464,-3.796436886855092e-05
2024-03-06 14:09:36.013,0.04594248675921296,0.031079595989375937,-9.793057479480346,0.00024017323853611894,0.000827927073996563,0.003018539998460378,-0.004911669788024169,0.0021181050195733624,6.88712660466628e-05
2024-03-06 14:09:36.065,0.13086739669741387,0.06031830457680995,-9.832514914257208,0.0004064068387915056,0.00061241901078809,0.003023500462569816,0.006623170338728176,-0.008640272415029574,0.00020741334569485825
2024-03-06 14:09:36.119,0.12486589119271567,0.07888757416383244,-9.83545575141139,0.00043809415976245076,0.0003019572610896916,0.003026430870659501,0.0012299041059391346,-0.01242219384233064,0.00012340642668759745
2024-03-06 14:09:36.175,0.0617061810566669,0.027515152544809712,-9.804839361415423,0.00034362079190895426,0.00019988782283007875,0.0030287726687923283,-0.0037912928388133755,-0.004071290130557367,9.392644956043091e-05
2024-03-06 14:09:36.231,-0.030008725100582834,0.019578612207193653,-9.787157737514894,0.00036993997700268905,0.0003574286469341993,0.003023710530134056,0.0010719219318110393,0.006298340239875677,-0.00020460372390538185
2024-03-06 14:09:36.283,-0.04046626007647322,0.034866287550487866,-9.799267910641932,0.00035129115013763864,0.0006354045477226263,0.003021121260349364,-0.000712260047042702,0.011121204790163321,-0.00010773734952997045
2024-03-06 14:09:36.336,0.0012797119172030986,0.04530771187442047,-9.8187180228954,0.00025599823689381463,0.0007746128638524632,0.003021292773206254,-0.003794879365157002,0.0055798253626409,3.0201883821450704e-06
2024-03-06 14:09:36.392,0.07965198296029015,0.05925601645268562,-9.822364895659863,0.00034356863314492103,0.0006709107161809712,0.003024616600268798,0.0034901770076331672,-0.004158603850188272,0.0001370858470052279
2024-03-06 14:09:36.453,0.10833186710667776,0.07784581897301901,-9.812128915992961,0.00046640639554686435,0.0004221384751292685,0.003027247823505155,0.00488334567029669,-0.009965655084447411,0.0001131709391791572
2024-03-06 14:09:36.509,0.06977026137639575,0.029092847472070513,-9.806982334557828,0.00036059323113089283,0.00025926288146697906,0.003027427041039836,-0.004252232613951901,-0.0065021789067668595,7.717432274234107e-06
2024-03-06 14:09:36.559,-0.003111642342898986,0.002757349335297648,-9.808587468938939,0.0002889111912014436,0.0003114975120073291,0.0030276363792359705,-0.0028609453707315767,0.0020980583694389177,7.025814475100976e-06
2024-03-06 14:09:36.613,-0.039036220185946546,0.03215087355870563,-9.80568872756313,0.00032715501707786536,0.0005216814246913022,0.0030225375470025358,0.0015553081595334048,0.008402619850223794,-0.0002062213597780985
2024-03-06 14:09:36.705,-0.018656583075133862,0.056333777918575634,-9.802757389898758,0.0002921447265651601,0.0006962655136215777,0.0030217893605264698,-0.0013792749577853862,0.006987556451931531,-3.269031440740992e-05
2024-03-06 14:09:36.760,0.04113547406790622,0.05783425565792989,-9.809682611102412,0.00027785078961459415,0.0006862118921134742,0.0030225167501577764,-0.0005729899747218259,-0.0004004073373567664,2.880803118870686e-05
2024-03-06 14:09:36.814,0.08520829401284759,0.06665206630638067,-9.820402785352856,0.0004173182082972525,0.0005141757009115513,0.003025586346816749,0.005557808113366035,-0.006898225277326077,0.00012947643355786762
2024-03-06 14:09:36.866,0.0723703902808927,0.041019828365988796,-9.820170234117022,0.00038973616528971124,0.0003366461774676389,0.0030283901497287565,-0.0011248003644812083,-0.007097766863620181,0.00011433870262192947
2024-03-06 14:09:36.919,0.021299214938762634,0.00576488355266949,-9.807460103015913,0.00027414041322777034,0.00030833334265302205,0.003029983073550656,-0.004627258339528885,-0.0011184882634487118,6.246688143376038e-05
2024-03-06 14:09:36.974,-0.027476445907332243,0.02916210003335299,-9.797944966987528,0.0002889372541706657,0.0004479401020260619,0.003026599669778583,0.0006088524486428588,0.0055824123105198045,-0.00013676320961486806
2024-03-06 14:09:37.027,-0.02812979632240014,0.048326984211754805,-9.801337961230207,0.00029686095733416103,0.000620294179687582,0.003023301495962752,0.0003378956392142179,0.0068931335731321295,-0.00013382434940493936
2024-03-06 14:09:37.082,0.01185191011340598,0.06357911268391438,-9.81283634858704,0.0002642199541028794,0.0006758650783774651,0.0030231733590746373,-0.0012989096959478072,0.0022267719562444077,-6.5196946203524495e-06
2024-03-06 14:09:37.132,0.05770376900407279,0.055454177621832995,-9.820279105720823,0.0003492124681733036,0.0005737846865931481,0.0030249625275549077,0.0033872988782591845,-0.00409344943133607,7.528573699770255e-05
2024-03-06 14:09:37.183,0.06900438601980109,0.05357953759981886,-9.81745589460223,0.00038899111996321177,0.00041457059509017555,0.0030276621876676514,0.001571828790304688,-0.006373305469975577,0.00011136653320230112
2024-03-06 14:09:37.235,0.03743825340718527,0.019035336123032362,-9.809171315033234,0.00030511247368382216,0.00033990040119450646,0.0030300938417466877,-0.0033642068877113344,-0.0029766064803135187,9.678020627560401e-05
2024-03-06 14:09:37.288,-0.009405638237512856,0.01707349902822315,-9.8031709902345,0.0002522505984124841,0.00040705091410552955,0.003029374835919006,-0.002106314289697293,0.0026924078927830723,-3.0155580899778334e-05
2024-03-06 14:09:37.349,-0.026659443308505826,0.03710163006181071,-9.802108258095084,0.00026587400104780207,0.0005508887206079685,0.003026036682092956,0.000562437461912142,0.005751799841495534,-0.00013482836109204188
2024-03-06 14:09:37.416,-0.005263489197313484,0.06519127291126184,-9.808251075240966,0.00025543572435759597,0.0006401269245800919,0.0030248986964925297,-0.0004066978156109892,0.0035707640245391335,-4.665627326918989e-05
2024-03-06 14:09:37.470,0.03345554382832932,0.06489960233983144,-9.815569221420185,0.0003032945171984073,0.0006013086680979585,0.0030253246248272444,0.001909635378726846,-0.0015585085043441289,1.873236506169031e-05
2024-03-06 14:09:37.528,0.05269672520100014,0.05183020302249086,-9.818495716207398,0.00038754942318614503,0.00047590126529059156,0.003026763854243906,0.003354976860536752,-0.005026446185473365,6.153430952840586e-05
2024-03-06 14:09:37.583,0.0379639952073997,0.02748633338756347,-9.814977179687622,0.00033242257199132304,0.00037772472375001865,0.0030295647878502835,-0.0022169929714049466,-0.0039203325247432,0.00011228561086978385
2024-03-06 14:09:37.637,0.0031312753312452302,0.0025345620703183438,-9.806040488082855,0.00024653227800894935,0.0003893721704042134,0.003031396045964602,-0.0034342128158680644,0.0004763220374986448,7.183648459755715e-05
2024-03-06 14:09:37.693,-0.02108804167046229,0.03146341310353338,-9.799862653209832,0.0002034716477212824,0.0005006558328637768,0.003032764904782695,-0.0017089501428012234,0.0044565588510231905,5.318176500363759e-05
2024-03-06 14:09:37.747,-0.014300843875528452,0.0776228217966725,-9.795071557584546,0.00034452976708260267,0.000604072968470888,0.0030299412836743275,0.0056549123884469445,0.004119516997940059,-0.00011153295310909302
2024-03-06 14:09:37.797,0.01829087677358734,0.09557362974079547,-9.794828761800876,0.00043057656245549776,0.0006130879889026833,0.003029423018050087,0.003442960988122007,0.0003501625464067081,-1.8801244440457318e-05
2024-03-06 14:09:37.849,0.04173235390739835,0.039721346479920976,-9.851416291275777,0.00048824401653501325,0.0005274596834068913,0.0030296730152440062,0.0022963053864545288,-0.0034320989884949766,1.308324325920303e-05
2024-03-06 14:09:37.901,0.04244314048009931,-0.008567612942501893,-9.84045751219305,0.0004145317016364797,0.00042851696608459404,0.0030308812259389976,-0.0029604910975904765,-0.003948738164598774,4.8403735460111707e-05
2024-03-06 14:09:37.955,0.019186030379697742,-0.02733103044435144,-9.78876343068952,0.00025910142152281055,0.0004008206489660511,0.0030317140142500447,-0.006220553789498174,-0.001088995836147344,3.0929646355494505e-05
2024-03-06 14:09:38.013,-0.008359032711685246,0.025170992089870295,-9.776353557972207,0.00023206324254639252,0.0004654341202441957,0.003031717494088539,-0.0010736862620197435,0.0025878059652993516,-8.919110714991321e-07
2024-03-06 14:09:38.067,-0.013063612293777544,0.07613718118938036,-9.809844847487204,0.0003284663057285185,0.0005612524854852192,0.003029025014851594,0.0038677850710130365,0.0038209917394618617,-0.00010715454415037073
2024-03-06 14:09:38.120,0.005595731165857192,0.07210778061038879,-9.83272092280093,0.00038090350072016827,0.0005999302663091635,0.0030288837441282772,0.002102167875214515,0.0015407492580992344,-5.057805932353462e-06
2024-03-06 14:09:38.179,0.03087522526363703,0.04184277660424671,-9.818061813040494,0.000385116790900495,0.0005519973420576222,0.003029231255292395,0.00016271544881622357,-0.0019178133982934175,1.4736578931716286e-05
2024-03-06 14:09:38.232,0.037996420260856166,0.01915755201436332,-9.79966120814651,0.00040940942383181877,0.00046880705596727244,0.0030283133118314725,0.0009616373579402647,-0.0033305547109389235,-3.4823906802423917e-05
2024-03-06 14:09:38.288,0.02239237373312851,-0.0009860470058853763,-9.805607050577217,0.0003230422866513109,0.0004190642673416722,0.0030291023498352078,-0.003460708579296105,-0.001979230860717957,3.057893978218164e-05
2024-03-06 14:09:38.379,0.0008170173553772525,0.010119738427881003,-9.816324896521335,0.00024737418912325283,0.0004480609133545592,0.0030292877086261953,-0.0030231996308951676,0.00116903042772327,5.858570790350017e-06
2024-03-06 14:09:38.432,-0.011726535595442697,0.037134209479248094,-9.809514973046944,0.0002678856440328773,0.0005250786564260423,0.0030280470164531156,0.000829813159156772,0.003078197167346046,-5.0081058049039205e-05
2024-03-06 14:09:38.486,0.0006052837928924957,0.08062441755962065,-9.798835776987836,0.0003266930858132757,0.0005828111229933435,0.0030263106119892986,0.0023593200616407756,0.002302143065868273,-6.896976779793712e-05
2024-03-06 14:09:38.540,0.01940616564209668,0.03876345440459532,-9.805752057495196,0.0003319755498971482,0.000570172728754236,0.003026161385684591,0.00020977096893974522,-0.0005061749164938175,-5.678792864233472e-06
2024-03-06 14:09:38.593,0.0331951712418371,0.05140837976364198,-9.821306075075073,0.00040641056107195334,0.000505572845060303,0.003025988934193775,0.0029695701485311396,-0.002592995832637356,-4.151011328692111e-06
2024-03-06 14:09:38.649,0.02736680679733093,0.004395066362551056,-9.823585393835925,0.00035404419092421315,0.000447278558195335,0.0030263163829538117,-0.0021017073279162328,-0.002325418207455631,1.2858708229547622e-05
2024-03-06 14:09:38.702,0.008468067211664364,-0.010322751823791448,-9.806517511482916,0.00023745001849787134,0.00044652380052293553,0.003025834638174008,-0.004663828060791039,-1.6081111614578186e-05,-2.1351280685819174e-05
2024-03-06 14:09:38.757,-0.005614851926811729,0.03719997954000816,-9.794465732278534,0.0002114996405877692,0.0004986733181849263,0.003025967293483566,-0.0010317008173971547,0.002089113243858156,4.403582816584279e-06
2024-03-06 14:09:38.812,-0.003201664806325659,0.060825482454174566,-9.801091067627404,0.0002890154894960115,0.0005547317314812276,0.0030237645351080806,0.003107453714885508,0.0022329189608343743,-8.720632099620079e-05
2024-03-06 14:09:38.868,0.0126758939946527,0.05812542889494362,-9.816540311422614,0.00034835565447361615,0.0005678454725202632,0.0030231986297247124,0.002375194518835213,0.0005173626405633863,-2.1498745844138755e-05
2024-03-06 14:09:38.923,0.025207586948962652,0.03190276955493551,-9.821626729422283,0.00032113867241481464,0.0005268431633422948,0.0030227065782324146,-0.0010936224850211658,-0.001636800281626067,-1.9777578150569856e-05
2024-03-06 14:09:38.996,0.028179091921970306,0.029259981667498068,-9.813510439834527,0.0003110654781060753,0.0004738050825785296,0.0030220133573793002,-0.0004093258439978846,-0.0021203044995213387,-2.7285222965637476e-05
2024-03-06 14:09:39.052,0.014545760123257628,0.012889673395738733,-9.80520341539255,0.00027965383190751514,0.00045273336017666825,0.0030248806982441515,-0.001259059143520631,-0.0008390359738955184,0.00011433229656119647
2024-03-06 14:09:39.107,0.0015677614379685353,0.03770938586118522,-9.78651754640751,0.0003522448506115512,0.0004802384425013243,0.00302507844177549,0.0029069516248637463,0.001091418453065643,8.841685313161212e-06
2024-03-06 14:09:39.161,-0.0027908211943687583,0.05398199992291123,-9.819339773816683,0.00038352237778614847,0.000533077946660078,0.003023214766478989,0.0012575290913775146,0.002109757461931301,-7.475270580566654e-05
2024-03-06 14:09:39.213,0.005591958897494386,0.009408361287257994,-9.829945861057157,0.00032923374156821527,0.0005603810446418576,0.003022686904907186,-0.002168221548384578,0.001098676743509096,-2.2631991913806074e-05
2024-03-06 14:09:39.265,0.020618919471141955,0.03410725732354203,-9.807822573744739,0.0002758614926652027,0.0005421239010386445,0.0030224695749501078,-0.0021370828365596685,-0.0007238320974642667,-9.690994792696969e-06
2024-03-06 14:09:39.317,0.024368611912022844,0.03489826829306625,-9.797086753275781,0.00027574599910060025,0.0004935137895303716,0.0030225542205567523,-1.0498544417205929e-05,-0.0019443808649415835,3.916163587747255e-06
2024-03-06 14:09:39.370,0.020775951551283204,0.057940688724652745,-9.813767298588406,0.0003347136399071591,0.0004611436018364006,0.0030233671974420977,0.002354765974705334,-0.0013019196301541844,3.411726152121788e-05
2024-03-06 14:09:39.435,0.0055945171269121945,0.03241504651410342,-9.824438299009248,0.0003791824241923496,0.00047045672844937445,0.003025616259941145,0.0017798272777544127,0.00036718012653164686,9.064457382035207e-05
2024-03-06 14:09:39.491,-0.0020972371912411155,0.03195123038620199,-9.807615354481728,0.0003859438204926684,0.0005100422108357044,0.003023529816983063,0.0002752882061945443,0.001582561535351586,-8.393948164128016e-05
2024-03-06 14:09:39.556,0.004254240695628626,-0.010731357464979363,-9.791246895349035,0.0002897679836040939,0.0005438377904734657,0.0030225969701261177,-0.0038429077212078317,0.0013634374098353114,-3.966870158709411e-05
2024-03-06 14:09:39.613,0.013021590115993157,0.03321697915023513,-9.80125404907022,0.00023832545303426994,0.0005427198043427231,0.003022156501453691,-0.0020578172183819458,-3.8504110531454983e-05,-1.872861804021332e-05
2024-03-06 14:09:39.663,0.022497797584787822,0.03728810075032581,-9.824596716971666,0.00025887788296547403,0.0005127072406908028,0.0030221011206882937,0.000818466246867395,-0.0012029821539919182,-1.4596435481116076e-06
2024-03-06 14:09:39.716,0.02038159949333144,0.08246933911607014,-9.82771422600986,0.00032996014815738856,0.00047919371067923507,0.0030222943553477335,0.0028392223201292015,-0.00134912478822442,9.630514851971458e-06
2024-03-06 14:09:39.771,0.011720017596811705,0.032643505251349396,-9.809294249607245,0.00036169591312549426,0.00047168276012972963,0.0030250193054414637,0.001268465384115169,-0.0003042334479410368,0.00010971646219547398
2024-03-06 14:09:39.827,0.0033477387434392696,0.01226312711839496,-9.794888273310566,0.000408738891226625,0.0005068041410552052,0.0030260645462435384,0.001885939260174971,0.0013991741606571705,4.212756318108582e-05
2024-03-06 14:09:39.893,4.207200077219734e-05,0.030383803687742544,-9.822042099270833,0.00038533288996989195,0.0005343736201921394,0.003024425883705974,-0.0009328634272822849,0.001105581766156077,-6.64456303486071e-05
2024-03-06 14:09:39.946,0.013706230956091345,0.011492225269039433,-9.802237339397795,0.00028140472265126036,0.0005457229345460864,0.003024126837853235,-0.004155727673401357,0.0004665395723271031,-1.4313255360916682e-05
2024-03-06 14:09:39.998,0.016693871705846727,0.03742830526366032,-9.781058785660194,0.00024501982900094885,0.0005281701052055491,0.0030243093803216793,-0.0014575161723508851,-0.0006977071212125748,6.677344322622751e-06
2024-03-06 14:09:40.051,0.01926991685072413,0.059969402735221514,-9.821151009873764,0.00031601267623727474,0.0005011923317242639,0.0030238104631061125,0.0028364469517877526,-0.0010877000763402755,-1.8114661463762354e-05
2024-03-06 14:09:40.104,0.015052307845879364,0.05782703358821982,-9.842481369183819,0.0004050657366144657,0.00048815106513331783,0.003024629709112872,0.003560512531501166,-0.0005324053576513063,3.477063524210399e-05
2024-03-06 14:09:40.160,0.006018830025070766,0.03177820523470929,-9.813745878170208,0.0004035718913895854,0.0005022451149918678,0.003025582889804493,-5.8067348150580005e-05,0.0005639556051701484,3.787145491506905e-05
2024-03-06 14:09:40.214,0.003401615352496756,0.008571706941758,-9.78063745534745,0.0003436655215162709,0.0005236055626666728,0.0030240427110881088,-0.002393626177886856,0.0008616424782485069,-6.310556569879914e-05
2024-03-06 14:09:40.268,0.008966842074610794,-0.010544558289730947,-9.791154694418527,0.0002513155537281004,0.0005412873419546076,0.0030238542271690664,-0.003691838419131916,0.0007184365215362099,-9.65252841241593e-06
2024-03-06 14:09:40.321,0.013238455311219387,0.03915428992987142,-9.8240260956573,0.00022542478674019207,0.0005325063725328553,0.003023629813378561,-0.0010366831950367056,-0.0003481077736063737,-9.459231729703572e-06
2024-03-06 14:09:40.376,0.01911341717170299,0.08238101190521231,-9.832416659730255,0.0003073364554927356,0.0005163623817161683,0.0030228195823614953,0.0032745155481014553,-0.0006556729650410698,-3.0463783530461517e-05
2024-03-06 14:09:40.429,0.014042747407421811,0.061216072643266506,-9.812688547701466,0.0003930926550448219,0.0005018709052250521,0.0030222143398744906,0.0034284919201407627,-0.000590034243441204,-2.2207091891275967e-05
2024-03-06 14:09:40.482,0.009405739181472361,0.03220444952435612,-9.798740223296218,0.0003708750240302443,0.000503698162410627,0.0030232807174194235,-0.0008885016625251353,7.57915397500366e-05,4.21813100793681e-05
2024-03-06 14:09:40.535,0.006239806344076308,0.00656370071484825,-9.801415261000228,0.00032076985051486025,0.000524005393636069,0.0030222235165812497,-0.002001719570004695,0.0008183309521086575,-4.355887346640116e-05
2024-03-06 14:09:40.588,0.005428601154105066,-0.0074350543506732005,-9.80808380971451,0.0002584979150034213,0.0005413964252546092,0.003021924538560489,-0.0024887568144283142,0.0007031627438183816,-1.344485755766859e-05
2024-03-06 14:09:40.645,0.01292620578391673,0.04182056783607792,-9.811897761740921,0.00023547189464405462,0.0005461225986720247,0.0030217429417211616,-0.0009204612254669277,0.0001918275779454861,-7.80738442720902e-06
2024-03-06 14:09:40.697,0.014860083228038104,0.06188266817684011,-9.814050886298908,0.00027596207831606065,0.0005288585541164805,0.003021447246230618,0.0016175192408699785,-0.0006954557609942887,-1.075250673651009e-05
2024-03-06 14:09:40.749,0.01734184092807909,0.07675070627717206,-9.814408234753813,0.0003646910440047018,0.0005125387456689872,0.0030205009708659707,0.003547189036640053,-0.0006635260934284287,-3.573278252554579e-05
2024-03-06 14:09:40.804,0.010437054372628402,0.03573797742648809,-9.81492251105509,0.0003638975590952361,0.0005022200428127643,0.0030205300911199918,-3.298661432099316e-05,-0.00041264996860828425,1.2980653355856242e-06
2024-03-06 14:09:40.861,0.008608675807791328,0.006930969687379765,-9.809178393084464,0.0002790093515367274,0.0005168527304977516,0.003020722520177416,-0.003393748457685358,0.000595562942216998,5.827035277624677e-06
2024-03-06 14:09:40.916,0.0035873126593343693,0.016268558011134544,-9.798181336645737,0.0002527162670702507,0.0005338520780123565,0.0030197166422371996,-0.0010496429039199909,0.0006831374716654277,-4.0950438668933575e-05
2024-03-06 14:09:40.971,0.011340009901031702,0.03721827784494295,-9.801096934959345,0.0002640634844225427,0.0005453300688550118,0.0030194864001082387,0.00045527806253970685,0.0004577445942763791,-9.08755089120653e-06
2024-03-06 14:09:41.027,0.011916533758991082,0.05737426272724997,-9.817433449729247,0.00027002396617880795,0.0005367022721239732,0.003019244214859012,0.00023738123982057025,-0.0003458328337098814,-9.464622881839751e-06
2024-03-06 14:09:41.081,0.01825649440804485,0.03841000706786489,-9.823074563428012,0.0003225170161668897,0.0005181885345818833,0.003018442155976638,0.002097492833199244,-0.0007468957686235254,-3.071573993182217e-05
2024-03-06 14:09:41.134,0.01259019185112249,0.054270026490305226,-9.813738520722218,0.0003596842800551334,0.0005050909376115034,0.003017646456929616,0.001485118264127971,-0.0005284002214431194,-3.0868406999278575e-05
2024-03-06 14:09:41.189,0.009906410748633429,0.009993409074108244,-9.80423903091234,0.00030661379025158245,0.0005130755802162611,0.0030185522011101696,-0.0021218644679874017,0.0003258010597655779,3.505846952035903e-05
2024-03-06 14:09:41.245,0.003683270990809302,0.012545925114683637,-9.801515098775484,0.00023074076563595847,0.0005282640566006733,0.0030197898282381974,-0.0030330989749282316,0.0006167086226814637,4.780713528411441e-05
2024-03-06 14:09:41.300,0.009610991473278391,0.020842855848516317,-9.804571419923434,0.0002484321829524726,0.0005413543479998384,0.0030185643648402488,0.0007092611458734983,0.0005214601910447924,-4.8773628809493125e-05
2024-03-06 14:09:41.354,0.011952386410756455,0.06122111485891627,-9.812502003798633,0.0002713948729158767,0.0005422499279365215,0.0030183929835522444,0.0009186151610727708,3.304873287033878e-05,-6.36692284468307e-06
2024-03-06 14:09:41.412,0.015443226112432021,0.056295648719256894,-9.818663167998361,0.00029526279398793504,0.0005272579911165013,0.003017001656956994,0.0009529315469635098,-0.0006025728731519744,-5.4958658673027516e-05
2024-03-06 14:09:41.467,0.015349691533063113,0.03472342849509339,-9.816376119260505,0.00032873825408791967,0.0005113629340585836,0.003015953921951524,0.001337115279147684,-0.0006398528588210752,-4.099419315031043e-05
2024-03-06 14:09:41.520,0.010533597253373425,0.03453666745040853,-9.809958003174645,0.0003254115892860553,0.0005113903223881853,0.0030161501465923927,-0.00013306667853544863,1.4993952241234009e-06,7.780489831938032e-06
2024-03-06 14:09:41.575,0.0056475140627883095,0.011884279505789333,-9.803382121052138,0.00026391820281888433,0.0005217582450021488,0.0030177385944112154,-0.0024585062242847384,0.000422150566048629,6.216975831186703e-05
2024-03-06 14:09:41.627,0.007907859082497424,0.03689497868726597,-9.801479335990319,0.00022763387364597455,0.0005342590972745308,0.003018604956376159,-0.0014498758425580572,0.000504419521351277,3.378340045006799e-05
2024-03-06 14:09:41.679,0.009898225057963913,0.03745574908308387,-9.807542990721117,0.00026140735451271813,0.0005421807477225366,0.0030175697629310117,0.0013519118724270357,0.0003127759663403228,-4.0767356485265757e-05
2024-03-06 14:09:41.733,0.012595754451194187,0.06048932777139757,-9.816847275328627,0.0002852901918296072,0.000531426999146906,0.0030168626603985908,0.0009540259843076012,-0.00043303871479334513,-2.764340851568855e-05
2024-03-06 14:09:41.785,0.01668129090497702,0.03473938175900051,-9.819446223981904,0.00031827393329381614,0.0005116952738039071,0.0030159198856160594,0.0013169815741942387,-0.0007932576120583652,-3.675877036486345e-05
2024-03-06 14:09:41.842,0.013249077535947595,0.03475060092131081,-9.81325358108065,0.0002765953862083735,0.0005027104636642641,0.0030156917647653344,-0.0016682135409786076,-0.0003543655930287638,-9.880381459741646e-06
2024-03-06 14:09:41.895,0.0069474661924464505,0.03500582476759138,-9.793484956521791,0.0003182515809976987,0.0005134142035169751,0.0030162053307805797,0.0016675207709228228,0.00042312964473345234,2.1246457760490534e-05
2024-03-06 14:09:41.947,0.004888492253641862,0.058045302802058454,-9.798072651306443,0.0004205629974675067,0.0005261421670140607,0.003014349447048974,0.004094012416072828,0.0004967422115349043,-7.234205965264097e-05
2024-03-06 14:09:42.001,0.00993130156183857,0.009025598766263219,-9.829965884491559,0.0003705621039265574,0.000535660579300622,0.0030139717170266866,-0.0019988706891732417,0.00038675760897790933,-1.6304141455988302e-05
2024-03-06 14:09:42.053,0.012331710155184526,0.008724290723314555,-9.82179464687451,0.0002552680801991467,0.0005357507308675404,0.0030136470829853347,-0.0046117217517801755,1.7501940257572906e-05,-1.5459418565322155e-05
2024-03-06 14:09:42.108,0.012596043730181201,0.01814722513907265,-9.79987178017063,0.00019099192234552767,0.0005234891234909631,0.003013178927570806,-0.0025725027104867106,-0.0004827177261844802,-2.0012094927013808e-05
2024-03-06 14:09:42.160,0.015185018415970806,0.08281598645682418,-9.801607765367258,0.000293545440262746,0.000516164259923098,0.0030132568617415125,0.0041012371913816195,-0.0003053520628619859,5.354609838436512e-06
2024-03-06 14:09:42.212,0.009127109573997432,0.08170721024082254,-9.821910503397289,0.000404249904019249,0.0005223454561560388,0.0030140825253084833,0.004428885963985479,0.00023391795470492622,3.521891848259705e-05
2024-03-06 14:09:42.264,0.0063491226545281,0.03066408862523407,-9.818696602477202,0.0004392080220597603,0.0005337174191243998,0.0030136042329526234,0.001399699621751483,0.00045065370605347217,-1.8598521080200467e-05
2024-03-06 14:09:42.316,0.009029704179677292,-0.03292565086711949,-9.796645958322152,0.0003209449640599179,0.0005423702440028105,0.0030130034238925866,-0.004729444345612775,0.0003603589648595406,-2.6671493440638938e-05
2024-03-06 14:09:42.369,0.012040354973764354,-0.009769311863972195,-9.793179389599572,0.00018679724301173134,0.0005469492509907988,0.0030130936768767123,-0.005365333936542465,0.0001993273060180201,6.639739209019666e-07
2024-03-06 14:09:42.421,0.012377941377348534,0.06171743950914645,-9.815689455158859,0.00017311054747178495,0.0005421411335460299,0.0030124251348812754,-0.0005480302927722834,-0.00019067900128835952,-2.7008532965936886e-05
2024-03-06 14:09:42.493,0.012949282043722811,0.08574013365642465,-9.829183759830546,0.0003080442677008573,0.0005361724404137788,0.0030117201485141,0.0053966195674617495,-0.00025501340746099117,-2.519419463829238e-05
2024-03-06 14:09:42.548,0.011941127185206436,0.08080166751843873,-9.818564540942393,0.0004231222720724764,0.0005387064089026572,0.003011993431330242,0.00460339834789519,8.750080569241647e-05,1.3363365677499151e-05
2024-03-06 14:09:42.600,0.007782516598641317,0.026902723943778385,-9.800374321808023,0.00037228691166728067,0.0005472827847594759,0.0030132706493798357,-0.0020323995922484415,0.00034919685977058423,4.986424225247311e-05
2024-03-06 14:09:42.653,0.00890899021645682,-0.0355174736752228,-9.793516900884581,0.000246550899232953,0.0005567712035646905,0.0030122058463073836,-0.005028249719787278,0.0003946790629868465,-4.544057432965306e-05
2024-03-06 14:09:42.707,0.010755092126442895,0.03642010656039597,-9.788571298851505,0.0002455562605546463,0.0005638844447556162,0.003011989949680244,-3.892339660621155e-05,0.00028464609446686705,-8.727477413042345e-06
2024-03-06 14:09:42.760,0.011474332132606358,0.08349564308402799,-9.824961516006814,0.000347718642712412,0.000565639655842072,0.003011352084681909,0.0040867021605469,5.7891653257772195e-05,-2.3229783983125147e-05
2024-03-06 14:09:42.813,0.012526984035767586,0.055390558911712746,-9.847088621741609,0.0004772134513490835,0.0005631308180229344,0.0030112408688838313,0.005179468763198951,-0.00011595178246189881,-1.4625829702182434e-06
2024-03-06 14:09:42.864,0.012230401704327506,0.026279147302919054,-9.815703052467802,0.0004244372448318552,0.0005634755626902292,0.0030106796436718593,-0.002110984420224285,2.013656056354137e-05,-2.3646260926511514e-05
2024-03-06 14:09:42.918,0.008930441739372883,-0.035512889731194125,-9.784375225190878,0.00024500862956810567,0.0005706701472705687,0.003008929227754436,-0.007176204926039975,0.000309372297472604,-7.41344676473235e-05
2024-03-06 14:09:42.973,0.008926162123625644,0.013851674658881295,-9.792201035281408,0.00019346551215294956,0.0005755380591393999,0.003008899451307186,-0.002061128471256435,0.00020091877556723588,-2.406006308393967e-06
2024-03-06 14:09:43.027,0.011425547943303794,0.08565660784976836,-9.817563928015753,0.00030586869363414073,0.0005803750987079767,0.0030085675777829202,0.004496696173388272,0.0001799491892184238,-1.074125367556661e-05
2024-03-06 14:09:43.079,0.010985818722726075,0.07855769062862525,-9.824110473478555,0.00040025268498294447,0.0005852669782360305,0.00300813290384304,0.0037759410507289416,0.00018430987956537194,-1.5268804019161467e-05
2024-03-06 14:09:43.131,0.0109179654104493,0.03310274276145025,-9.811867214361923,0.0004026480230370001,0.0005843031410318258,0.003007898032170459,9.570257507026503e-05,-3.884531370274092e-05,-9.323258591143863e-06
2024-03-06 14:09:43.182,0.012192836272325912,0.0037841373505236434,-9.804444201265785,0.0003553331147553524,0.0005857020561744091,0.0030077101910035557,-0.0018924148632732307,6.16460456086779e-05,-8.641202122863315e-06
2024-03-06 14:09:43.233,0.010463599293006146,-0.00955423756844493,-9.810452814835037,0.00024631248052625913,0.0005894467155359531,0.0030061594656199623,-0.004360318023257403,0.00016288593904367348,-6.462257510785453e-05
2024-03-06 14:09:43.286,0.010498711908863033,0.016944856192887374,-9.8125577900182,0.00022275001922998487,0.0005920704284192095,0.0030061070911488936,-0.0009421773075985466,0.00010778076988725546,-2.674330033357782e-06
2024-03-06 14:09:43.346,0.011098678687979013,0.07936021925660672,-9.804413374490027,0.0003060661525306068,0.000594840146260266,0.0030054359544225443,0.003332978803859525,0.00010076236052375544,-2.490265187280942e-05
2024-03-06 14:09:43.410,0.011182270978694833,0.06150955704263188,-9.80203915396333,0.000360064233439488,0.0005966314178510126,0.003005300158114352,0.0021601318073887887,6.515756903546268e-05,-4.17022482898273e-06
2024-03-06 14:09:43.464,0.01078666551773238,0.03231681977221015,-9.812195133024872,0.00032211468351599735,0.0005975249940511636,0.0030051177115314417,-0.001517863179275096,4.030224429359978e-05,-8.216402634098138e-06
2024-03-06 14:09:43.517,0.010655272097700681,0.009258640322038235,-9.819828811277384,0.000308655210930804,0.0005981809392342758,0.0030047100403225715,-0.0005382878107918537,2.7850424636127726e-05,-1.6637152988276124e-05
2024-03-06 14:09:43.572,0.01063487525889675,0.01151637840036406,-9.81619693280566,0.0002748556543568659,0.0005995258925504927,0.0030038013376976263,-0.0013517925550950857,5.784994753266489e-05,-3.717272928648971e-05
2024-03-06 14:09:43.628,0.010795977992703088,0.03720637401505366,-9.805714059535958,0.00022144616860169902,0.0005993915583623355,0.0030031869431919956,-0.0021363709014030814,1.0381794536475355e-06,-2.585677033449034e-05
2024-03-06 14:09:43.680,0.010777534327784494,0.037467434634255094,-9.799472242805097,0.00024033711569093958,0.0005989003994849915,0.003003282390684283,0.0007555730725579317,-2.1914553690170685e-05,4.276092279517985e-06
2024-03-06 14:09:43.732,0.010934561604657077,0.06026104679488261,-9.804168250400032,0.0002812818144132909,0.0005993242173142106,0.0030026470938414197,0.0016378464492027838,1.2027001779842062e-05,-2.4434364629798296e-05
2024-03-06 14:09:43.783,0.010801110703071385,0.034532879587054505,-9.814198594052225,0.00027454273137097877,0.0005984668654029959,0.003002329164915862,-0.0002696574471120623,-3.3488081250225096e-05,-1.2869633457256091e-05
2024-03-06 14:09:43.835,0.01077813038074093,0.03476270011065276,-9.818875975196553,0.0002642534800998371,0.0005976876998632616,0.003002157114334064,-0.000411657607043874,-2.993271160601894e-05,-7.120504167893656e-06
2024-03-06 14:09:43.888,0.010788300493542733,0.03476501968582999,-9.814348350715111,0.0003849193674938138,0.0006695974537241912,0.003010599348436988,0.004835023154643647,0.0028620191861168367,0.00033947977292646606
2024-03-06 14:09:43.946,-0.0060450806670830455,0.05794505177516623,-9.861589220407373,0.00048506635892868596,0.0006781006131510183,0.003009513234293186,0.004006914434156397,0.0003280450481302639,-4.092026934157385e-05
2024-03-06 14:09:43.997,0.031331260414623335,0.026503172208229748,-9.769530689114644,0.0003537796680621514,0.0006799778087298785,0.0030083721240650152,-0.005251186111944351,9.087459020000119e-05,-4.9236591626826245e-05
2024-03-06 14:09:44.050,0.01727455701061766,-0.039960612332922196,-9.713009190407144,0.00015095249751296145,0.0006831966879178243,0.0030071222684779886,-0.008112626976737551,0.0001531538753540383,-5.553153959481085e-05
2024-03-06 14:09:44.104,0.016022160765040712,0.04020467704353991,-9.840208662812932,0.00012984872702033172,0.0006852552620405763,0.003006736709068036,-0.0008438886269322161,8.487897275307097e-05,-1.600998953724309e-05
2024-03-06 14:09:44.160,0.016884701397624078,0.11201738150248663,-9.896566993813108,0.00035396593283744805,0.0006887183303821035,0.0030061285699314135,0.00896507911070465,0.00011156187862719337,-1.821875454068521e-05
2024-03-06 14:09:44.213,0.01517315213968441,0.08510007923045665,-9.820955711539145,0.0005478486648194905,0.0006923778854677273,0.003005170622054296,0.007755739729496306,0.00012305047253993967,-3.304171050847574e-05
2024-03-06 14:09:44.264,0.01638847119841419,0.0022922796509083016,-9.752807023568863,0.00039823728573886244,0.0006924401865548161,0.0029997913844616274,-0.005984271154582218,2.038886569533716e-05,-0.00021932071373689015
2024-03-06 14:09:44.319,0.018644069315389176,-0.06095390514632823,-9.77934161317868,0.00023707003908517805,0.0006882184971866562,0.002999822334177755,-0.006447167128371323,-0.000149528527359414,-3.189297621316015e-06
2024-03-06 14:09:44.374,0.015027077361288239,0.034119508853239285,-9.816154930159541,0.00027598442286712956,0.0006841545516084448,0.0029988127679496223,0.0015561079583701549,-0.00016723748464001558,-3.9265649339634557e-05
2024-03-06 14:09:44.426,0.016778284792754544,0.08664507245161779,-9.861828477165426,0.00041200596233936137,0.0006799164626612826,0.0029986076930754086,0.005440333350696779,-0.0001858405546205757,-4.403311752030055e-06
2024-03-06 14:09:44.482,0.016356983310991294,0.055113480661251366,-9.820670261183583,0.00043487921839597567,0.000675827912567481,0.0029979790893484904,0.0009144525186874619,-0.00016629551544156612,-2.4450166711246514e-05
