Timestamp,Linear_Acceleration_X,Linear_Acceleration_Y,Linear_Acceleration_Z,Orientation_X,Orientation_Y,Orientation_Z,Angular_Velocity_X,Angular_Velocity_Y,Angular_Velocity_Z
2024-03-06 01:23:02.183,2.981084943857759e-05,-0.006814750662766948,-9.810399170657288,0.0004098974556735478,9.17126813473392e-06,1.5544993930254852e-07,-0.0,0.0,-0.0
2024-03-06 01:23:02.236,4.235138012301516e-05,-0.006622780760273506,-9.810560941380814,0.0004098974556735478,9.17126813473392e-06,1.5544993930254852e-07,-0.0,0.0,-0.0
2024-03-06 01:23:02.289,3.502560137651289e-05,-0.006767034070979582,-9.810477867411104,0.0004098974556735478,9.17126813473392e-06,1.5544993930254852e-07,-0.0,0.0,-0.0
2024-03-06 01:23:02.367,3.509567190034307e-05,-0.0068056550795349445,-9.81046762286327,0.0004098974556735478,9.17126813473392e-06,1.5544993930254852e-07,-0.0,0.0,-0.0
2024-03-06 01:23:02.423,3.513353441166946e-05,-0.0068140843669800754,-9.810479823188418,0.00040882084685462766,9.386516451328964e-06,1.5474783781584675e-07,-4.306435472764127e-05,8.609926996412823e-06,-3.19989345304362e-08
2024-03-06 01:23:02.498,2.8609776654441724e-05,-0.006751089674645385,-9.81041118471793,0.00040882084685462766,9.386516451328964e-06,1.5474783781584675e-07,-0.0,0.0,-0.0
2024-03-06 01:23:02.554,4.272746895410425e-05,-0.006679162198622574,-9.81055991692603,0.00040882084685462766,9.386516451328964e-06,1.5474783781584675e-07,-0.0,0.0,-0.0
2024-03-06 01:23:02.606,3.5087105952798975e-05,-0.00680119514510296,-9.810467064069751,0.00040774048844093366,9.620884503608778e-06,1.5389475102077291e-07,-4.321433833119689e-05,9.374713920961704e-06,-3.835155752019711e-08
2024-03-06 01:23:02.659,2.778000968319636e-05,-0.0068520068836376525,-9.810410067130892,0.00040774048844093366,9.620884503608778e-06,1.5389475102077291e-07,-0.0,0.0,-0.0
2024-03-06 01:23:02.712,4.381977097323786e-05,-0.006648254159519251,-9.810549951774956,0.00040774048844093366,9.620884503608778e-06,1.5389475102077291e-07,-0.0,0.0,-0.0
2024-03-06 01:23:02.764,3.496028651498728e-05,-0.006755650199186606,-9.810411743511446,0.0004072077962684296,9.746007005735784e-06,1.536646580452287e-07,-2.1307687788121545e-05,5.004899118255643e-06,-1.1446752714280255e-08
2024-03-06 01:23:02.816,3.170315272935527e-05,-0.0068301173026192865,-9.81054734407187,0.0004066676049729907,9.87031161985734e-06,1.532554899758094e-07,-2.160765265989612e-05,4.972180732888917e-06,-1.859933747915501e-08
2024-03-06 01:23:02.867,3.564944792128083e-05,-0.006712347407714668,-9.810414258082279,0.0004066676049729907,9.87031161985734e-06,1.532554899758094e-07,-0.0,0.0,-0.0
2024-03-06 01:23:02.922,3.959655561878615e-05,-0.0067294435880844855,-9.810479823188418,0.0004055947215035667,1.0133573970222885e-05,1.522983605200836e-07,-4.291534026826944e-05,1.0530484026145242e-05,-4.297987828088896e-08
2024-03-06 01:23:02.978,2.7456658397264594e-05,-0.006850172160062911,-9.810482151494744,0.0004055947215035667,1.0133573970222885e-05,1.522983605200836e-07,-0.0,0.0,-0.0
2024-03-06 01:23:03.030,4.413010831431095e-05,-0.006654857613699929,-9.810481406436718,0.0004055947215035667,1.0133573970222885e-05,1.522983605200836e-07,-0.0,0.0,-0.0
2024-03-06 01:23:03.083,3.527719708659666e-05,-0.00678476767068086,-9.810481406436718,0.0004045144115639536,1.0407970066257347e-05,1.5112745196536212e-07,-4.3212398921088646e-05,1.0975830402261188e-05,-5.171412403701764e-08
2024-03-06 01:23:03.136,2.6636621420144895e-05,-0.00678584710441639,-9.81048177896573,0.0004045144115639536,1.0407970066257347e-05,1.5112745196536212e-07,-0.0,0.0,-0.0
2024-03-06 01:23:03.188,4.4970418140533074e-05,-0.008495041726159743,-9.81048177896573,0.00040815772089298526,1.1250154278467084e-05,1.5124192538204414e-07,0.00014573239038181155,3.368734615094404e-05,-7.654036003982278e-09
2024-03-06 01:23:03.244,9.447030109119953e-06,-0.010422639575779677,-9.810560661984056,0.004629403412968356,1.2640579535243919e-05,8.897658970741464e-07,0.16885048828840654,5.574043789344738e-05,3.11828903466462e-05
2024-03-06 01:23:03.296,3.156560374147185e-05,0.17321011381275184,-9.848713965821627,0.0019994639410185833,1.5657117249712366e-05,-3.957967609832438e-08,-0.10519818631381181,0.00012067963117942622,-3.874483637684798e-05
2024-03-06 01:23:03.350,-2.1538895509959477e-05,-1.1002550852392947,-9.765867518205901,-0.001181986202460117,1.9214631128409773e-05,-9.570196814683836e-07,-0.12725806931289768,0.0001423443196159469,-3.852187727527428e-05
2024-03-06 01:23:03.422,0.00042059224645981026,-0.40954109632559793,-9.755591212273435,0.0025925229005493594,2.000397045549693e-05,2.2863289283313143e-06,0.15098048863783703,3.206729091497945e-05,0.0001325520095045802
2024-03-06 01:23:03.479,0.0002468373590856261,0.17820231032015957,-9.845844747370034,0.00768101264766502,1.7930349047710165e-05,5.022879445115876e-06,0.20354249270592822,-8.252533716155303e-05,0.00011417209131030631
2024-03-06 01:23:03.559,0.000867112784445364,-1.5768270787264398,-9.905375721702201,0.005057063094306115,1.6305212282920054e-05,8.821113869317588e-06,-0.10496014390080209,-6.371617275614198e-05,0.0001503722383401976
2024-03-06 01:23:03.617,0.0005304017012579621,-2.754950823260013,-9.751021398881365,-0.0015994311844362218,1.77492636684585e-05,9.231994162808226e-06,-0.2662606603545521,6.0105770439477537e-05,1.2197774962068391e-05
2024-03-06 01:23:03.673,0.0001304146181497931,-0.9173930303314286,-9.613686715906464,-0.0016632824926336744,2.100444699738183e-05,9.739770452591387e-06,-0.0025540549558680913,0.00013019702589510187,2.0482302520199956e-05
2024-03-06 01:23:03.725,0.0002146510465559584,1.4113500276777415,-9.768782930255002,0.0032419269783517074,2.4159844978906256e-05,8.90513151783915e-06,0.19620863863695726,0.00012421949678451677,-2.9662499405547994e-05
2024-03-06 01:23:03.778,0.0003720956066833233,0.9951534324764972,-10.010012136296723,0.004975784660026313,2.585680932907226e-05,9.139458762966231e-06,0.06935490174916532,6.73165583779849e-05,1.0714408014836472e-05
2024-03-06 01:23:03.830,0.0008042322251638109,-0.8248790444863668,-9.935057063877666,0.003189482300046379,2.53922357136296e-05,1.2337287578966797e-05,-0.07145270277621985,-1.752607870312493e-05,0.0001261227386547943
2024-03-06 01:23:03.883,0.0001995318933452576,-1.2767163779469808,-9.659288457945259,0.0029111580624123436,2.413290842482791e-05,1.4444668388589128e-05,-0.01113302398746305,-4.999091420709392e-05,8.415844723102525e-05
2024-03-06 01:23:03.942,0.0012362098668201506,-0.6789990552897083,-9.632800527594215,0.0021226073601695876,2.5276707347519563e-05,1.6896603877415567e-05,-0.031542130610749945,4.641433302241385e-05,9.721809556804456e-05
2024-03-06 01:23:03.996,-0.00025039437564228516,-0.17695522143066275,-9.843970926438908,0.0009933151727456837,2.849019377494394e-05,1.6753926305291213e-05,-0.04517174235226913,0.0001292964842725988,-6.97690019761538e-06
2024-03-06 01:23:04.056,0.0005422583273086513,0.31102504013418025,-9.96206793182952,-0.000250630102551032,3.1126254710926545e-05,1.6275234483834492e-05,-0.049757815254218164,0.00010628210858163138,-2.0538126956703782e-05
2024-03-06 01:23:04.111,0.0009487920753602181,0.9481902977147092,-9.821467473269589,0.0016197451406006755,3.246791501367304e-05,1.584992698417779e-05,0.07481503953708285,5.242710769195348e-05,-1.4767388587870512e-05
2024-03-06 01:23:04.164,0.0009321735559007432,1.0266662495117833,-9.728065043565522,0.004963580612418596,3.2007141874259926e-05,1.8903256560356603e-05,0.13375420152885353,-1.9915611302701247e-05,0.00012657985159157052
2024-03-06 01:23:04.217,0.0003246380972392217,-0.013447680337511285,-9.81141123885105,0.005975161278563263,2.9864394416084734e-05,2.384695137955321e-05,0.040463826050085375,-8.528328170600662e-05,0.00019955645470389017
2024-03-06 01:23:04.275,0.0006280367173998552,-1.3181666915989467,-9.873043090547252,0.001416821129678851,2.8948070555284855e-05,2.716813837009601e-05,-0.1823350138008069,-3.2111871870168514e-05,0.0001274577087069588
2024-03-06 01:23:04.330,0.0009731006279533112,-0.8916835692004654,-9.749644904181464,-0.0012676567977202727,2.9779891464743113e-05,2.7510167196819875e-05,-0.10737914905230843,3.618086007521734e-05,1.0622526777404467e-05
2024-03-06 01:23:04.382,0.0009659483846956496,0.9736206269314029,-9.705325872663764,0.00029520320120293367,2.974214880503226e-05,2.800361317239762e-05,0.06251441302929205,-3.2216560970145252e-06,2.1601806591701777e-05
2024-03-06 01:23:04.435,0.0009409891341490797,1.8270695412712668,-9.838791841847465,0.0021469034666624,2.9644023584845546e-05,2.638440360571219e-05,0.0740680781615695,-6.1314458574007415e-06,-6.255050033045329e-05
2024-03-06 01:23:04.492,0.0004244664038039141,1.1175990170472767,-9.9424170264385,0.002949826418220942,2.9602568235991107e-05,2.597806268444115e-05,0.03211702362265059,-2.550345195649226e-06,-1.5293762428027678e-05
2024-03-06 01:23:04.547,0.0005443592013501849,0.23438311960451388,-9.84741085933712,0.002700142856525024,2.747155603207426e-05,2.7926285242240076e-05,-0.009987386695744706,-8.477106761487406e-05,7.78624602922686e-05
2024-03-06 01:23:04.599,0.0005741075040239682,-0.0377385218863705,-9.702987787451244,0.003972135633590917,2.5363739995301022e-05,3.254172529078624e-05,0.0508799905967618,-8.49930831737775e-05,0.00018635533209970134
2024-03-06 01:23:04.649,-0.00017435555175275628,-0.20339511300143714,-9.752085341740072,0.0026625397228599215,2.5572599536040325e-05,3.3848463649241117e-05,-0.052384129424710546,1.0195520529765917e-05,5.091502803810701e-05
2024-03-06 01:23:04.704,0.0008062167766148695,-0.24264129472458174,-9.845397153761931,-0.001104895140334536,2.6870827305979476e-05,3.340476161357246e-05,-0.15069752697444766,5.706106017029362e-05,-2.1529157880993496e-05
2024-03-06 01:23:04.760,0.0007291866944969606,0.7598983752496381,-9.833824819396188,-0.00019267203344522122,2.890280226734732e-05,3.2668721888215945e-05,0.03648893674850293,8.00660237427449e-05,-2.844511935192965e-05
2024-03-06 01:23:04.816,0.00036982628961249416,1.818677684988303,-9.806286822892142,0.0042549784311990135,3.0259327284274026e-05,3.271270395592126e-05,0.1779065337532782,4.84894567643985e-05,6.7079271007978926e-06
2024-03-06 01:23:04.871,0.0007258176079584711,0.9637377290980665,-9.843565894270446,0.005993154142013719,3.0068314422848713e-05,3.591078493141407e-05,0.06952794581472407,-9.13366959217095e-06,0.00013008615940377982
2024-03-06 01:23:04.928,-0.00010123362502615708,-0.7375527870699836,-9.841039216245525,0.004099831223938125,2.8422700616635484e-05,4.122304984811395e-05,-0.07573390070881476,-6.224035399505666e-05,0.00021047292598752327
2024-03-06 01:23:04.980,0.0008345957782367533,-1.1726983149465042,-9.75258806964197,9.544194300045778e-06,2.847203706704868e-05,4.3880622622200514e-05,-0.1636119433445116,8.728503367781136e-06,0.00010166634114019228
2024-03-06 01:23:05.034,0.0012769167388471943,0.19336747600534812,-9.692155668232648,-5.6803229683782286e-05,2.9941027480171757e-05,4.4324452352254495e-05,-0.002653894910014443,5.887506943267406e-05,1.7680975617806964e-05
2024-03-06 01:23:05.087,0.0008306361738694764,1.575667927056491,-9.821010380171677,0.001080550329462704,3.0096968048106775e-05,4.4786119784778065e-05,0.045494150434340665,4.24331930572223e-06,1.9825411836889533e-05
2024-03-06 01:23:05.141,0.0009820001752960006,1.6415218625053623,-9.92824639534525,0.0010351464761902106,3.058520995209334e-05,4.30711868724098e-05,-0.0018161521744329077,1.9539940478634448e-05,-6.867223891443219e-05
2024-03-06 01:23:05.194,0.0004492034015670939,1.1993787380230467,-9.86108118396705,0.002188585802443511,3.122100463652641e-05,4.244341672688457e-05,0.04613763735581326,2.3393476458537894e-05,-2.3749786292443142e-05
2024-03-06 01:23:05.245,0.00040738918355555804,0.849658600443426,-9.752785603150665,0.003253608975818269,3.055344527533603e-05,4.387932176596382e-05,0.04260108372550436,-2.8318444993152558e-05,5.8859661572368204e-05
2024-03-06 01:23:05.311,0.00045477103299166406,0.3439080949099149,-9.753915856173533,0.004731048240230432,3.0106828845281416e-05,4.752253496323487e-05,0.05909804169871371,-1.975827509762046e-05,0.00014763122144802578
2024-03-06 01:23:05.366,-0.0002499850206229733,-0.30592127879896647,-9.850588345546269,0.003303237345929771,2.9389166999491448e-05,5.0855496251239754e-05,-0.057112906630264235,-2.555624632383125e-05,0.00013168603826260977
2024-03-06 01:23:05.416,0.0011536992210487479,-0.45775845800928644,-9.829038846044819,-0.00020949544523003787,3.0310479980953596e-05,5.1203905400957235e-05,-0.14050955029260845,4.400338229587159e-05,9.828685028606771e-06
2024-03-06 01:23:05.472,0.0010727910366536532,0.5684633323767875,-9.74217951591019,-0.0009096153638650627,3.0770263107226956e-05,5.095970067299556e-05,-0.028004800408944916,1.9835226017825595e-05,-1.0598487998488814e-05
2024-03-06 01:23:05.526,0.0010077944499416324,1.8402806773275933,-9.771941696881292,0.002164002596510635,3.1340602991466744e-05,5.1037439604240894e-05,0.12294479183686967,1.6569086955088075e-05,6.8663838877315516e-06
2024-03-06 01:23:05.582,0.0004008809023065585,1.7018605495850667,-9.897297430073685,0.005897659875079743,3.0678486274509e-05,5.3516877110187826e-05,0.14934758653923075,-3.3485034556103634e-05,0.00010407165592805887
2024-03-06 01:23:05.634,0.000267294373750991,0.0925647778475623,-9.917615162396455,0.0033969804979207827,2.974623232346722e-05,5.661565647897014e-05,-0.10002828682153327,-3.1522282825389553e-05,0.00012099693385303569
2024-03-06 01:23:05.686,0.0006159623686307725,-0.8023378058157599,-9.729977048720393,-0.0014192649135373965,3.191747803955912e-05,5.595232497898021e-05,-0.19265009066557512,9.781625325480574e-05,-3.2098792019480026e-05
2024-03-06 01:23:05.740,0.0006642359349470485,0.6576509382783455,-9.6423156636226,-0.0013513155802950488,3.246498943310126e-05,5.540623019460411e-05,0.0027179778676525235,2.1777762317241848e-05,-2.1727626463665357e-05
2024-03-06 01:23:05.796,0.0011875761633564456,2.2555407927999456,-9.810495283142421,0.0030950608835299148,3.4062173280302853e-05,5.40093403200259e-05,0.17785527771958543,5.389067446116346e-05,-5.0246672057782587e-05
2024-03-06 01:23:05.852,6.341768551062594e-05,1.7043737816409554,-10.000532204259985,0.00464788845733319,3.102635452858029e-05,1.5608306545516827e-06,0.062113632305439814,-0.0001345256235853661,-0.002095219430744757
2024-03-06 01:23:05.906,-0.0183537408397517,0.16325904677974865,-9.957025285988776,0.010301430423330057,3.7129017579046105e-05,-0.0002929190997435375,0.22614871709041198,0.00012249008966947158,-0.011774066430729094
2024-03-06 01:23:05.960,-0.101387211730211,0.3056818445075545,-11.49356189540433,0.010919653791826368,2.9452576842583308e-05,-0.00019315471740745534,0.02473028359964956,-0.0002562098114680721,0.00399452726702599
2024-03-06 01:23:06.012,0.13922939391830744,-1.0678427485190518,-8.656820709353447,-0.0016856120034793834,-1.6918898019441025e-05,0.00014222574214675714,-0.5042187431241034,-0.001974739058544219,0.013396444882252955
2024-03-06 01:23:06.065,0.12870022945095044,-0.7320623613566342,-5.921795031045054,-0.005294655026649,-1.4993296265474413e-05,0.00016374440864020347,-0.14436265378712934,9.297985260663577e-05,0.0008637305753821902
2024-03-06 01:23:06.119,-0.13105420404674556,3.011915945813327,-10.570363105192298,0.00414409873709887,2.9505365998771725e-05,0.0002221647078021519,0.37755183408077286,0.0017277456904786635,0.002324303115645615
2024-03-06 01:23:06.174,0.0076243267147466775,3.1033043556208515,-13.866123084749768,0.008319400174830726,6.421502562654352e-05,0.0002472728933874019,0.16701566396686182,0.0013596421081988551,0.0009980558905747527
2024-03-06 01:23:06.230,-0.008012652636594775,-0.32910418996185653,-10.46092618861493,0.0016984381004640154,5.690634936534276e-05,0.0002569855748418771,-0.2648423749773943,-0.00022617122849704206,0.00037210200954847336
2024-03-06 01:23:06.283,0.004900776008582283,-0.9873627448868939,-6.746410909977783,-0.004641290948739178,8.956031900199035e-05,0.00024998110486860743,-0.25358949100582806,0.001372724621870533,-0.0002880348838385813
2024-03-06 01:23:06.336,-0.009347066477388399,1.2067222394581565,-8.977486511830415,-0.0027518609233176256,3.2691461486988397e-05,0.00024821750361546494,0.07557716047426385,-0.002293456696836154,-7.006904887902359e-05
2024-03-06 01:23:06.395,0.02210573141660487,2.5405055800771486,-11.630588869415194,0.002624985089709952,2.4187903022699847e-05,0.000253001194738668,0.21507400447495303,-0.0003929858499753907,0.000199554491476981
2024-03-06 01:23:06.448,-0.014806306650603293,2.3608002156011656,-9.673901187843681,0.002512455061349914,5.3198471269657245e-05,0.0002500111660820944,-0.004500915763373951,0.0011612570791195722,-0.00012262795168463593
2024-03-06 01:23:06.503,-0.012425406896029972,0.5044993166420934,-9.340580854220667,0.0008290931900443165,9.055339962171323e-05,0.0002493211163834569,-0.06733419812062849,0.0015110081316183493,-3.24226796977262e-05
2024-03-06 01:23:06.559,-0.0021085804796771236,0.3753350152678687,-9.785815142955098,-0.00044261296195195537,0.00010183253795349692,0.00025291525228103736,-0.05086815075486094,0.00046378933679356975,0.0001393725147915497
2024-03-06 01:23:06.611,0.009579287654770525,1.114898471292274,-10.13244584505005,-0.0002565458698703353,7.811514791059693e-05,0.00025700181052798563,0.0074424312052473705,-0.0009506199686451788,0.00016397651708111266
2024-03-06 01:23:06.664,0.011827364721298366,1.500043108591625,-9.934203786175331,0.0008003748975407139,4.451065627555896e-05,0.00025915409858965434,0.04227648362500211,-0.0013549711110676067,9.048420828384701e-05
2024-03-06 01:23:06.734,0.0029051860890645567,1.2687058865986762,-9.614857574591658,0.0012671314900410638,2.992497490678495e-05,0.00026057146923501594,0.018670120332231064,-0.0005881921524931807,5.827233869819755e-05
2024-03-06 01:23:06.789,-0.006120209120925391,0.7629688786934942,-9.662733047456122,0.0005880072895642676,3.935723847906724e-05,0.0002595734339316184,-0.027164879391390284,0.0003843452070809856,-4.095792363946905e-05
2024-03-06 01:23:06.876,-0.007926452101449169,0.5962431205824026,-9.909594426500316,-0.0002032294997005979,6.85068705285479e-05,0.0002585875207374506,-0.03164916647570186,0.001174209340945296,-4.044027420981882e-05
2024-03-06 01:23:06.931,-0.004652403743678284,0.8617690762502859,-9.945227012777162,-5.7596717918375954e-05,8.87334970825083e-05,0.00025887274277968465,0.00582551929841489,0.0008075580326944667,1.1854590547955593e-05
2024-03-06 01:23:06.984,0.004332532033675168,1.0716763747339182,-9.776693397563543,0.0007491037098884655,7.81664332600836e-05,0.00026269661083433177,0.032267897398467256,-0.0004309178448864291,0.00015614418555904075
2024-03-06 01:23:07.041,0.010192745877651796,0.8943742065568598,-9.689269034049735,0.0011317917323464045,5.138423651803661e-05,0.00026486880645799796,0.015307241341878684,-0.0010752084577387634,8.930207533124068e-05
2024-03-06 01:23:07.093,0.005150811139163501,0.5161914234508178,-9.818588662195932,0.0006922484425144407,3.126615126472059e-05,0.0002662242709249495,-0.017581953286515836,-0.0008000292297767504,5.386999859946885e-05
2024-03-06 01:23:07.145,-0.0020907315247892595,0.3774245905236769,-9.90767087294607,7.588044418602943e-05,3.115638060297252e-05,0.00026645609572240216,-0.024654722713730093,2.173741631011932e-06,8.503991865967993e-06
2024-03-06 01:23:07.198,-0.006416412141223229,0.5594990889046308,-9.823956153335269,6.498769448296313e-05,5.204074532373036e-05,0.00026579581708749606,-0.0004354860049180278,0.00083548893815641,-2.647901281535806e-05
2024-03-06 01:23:07.250,-0.005573016843713747,0.7251524604086061,-9.737994804384435,0.00033453854779641554,7.338543114494721e-05,0.00026543731727353805,0.010782261969085742,0.0008509170030739853,-1.4063157644509913e-05
2024-03-06 01:23:07.304,0.0006912366428885958,0.6858865462893491,-9.783729911809576,0.0007119290149079864,7.590390626010187e-05,0.0002672730918201127,0.015095641448058352,9.678531319131937e-05,7.447065552394762e-05
2024-03-06 01:23:07.360,0.0067703534877410305,0.49587747462582665,-9.866483785965785,0.0007447562980090474,5.5762126899813756e-05,0.00027136690434750036,0.001312867165243186,-0.0008058998439376031,0.00016445240705732685
2024-03-06 01:23:07.413,0.007514198743550409,0.32184546798084035,-9.845166744567916,0.0005106330276063665,3.269996024919087e-05,0.00027339089600292814,-0.009365185325637645,-0.0009199040442530741,8.090748512657126e-05
2024-03-06 01:23:07.470,0.0012733895395044825,0.2978500463041921,-9.771515989352656,0.0002736970902205678,2.857048946357056e-05,0.00027396772675148263,-0.009477483706752068,-0.00016258150669676042,2.280812327355125e-05
2024-03-06 01:23:07.527,-0.004509891821078699,0.40369525788029825,-9.751914723452504,0.0003695525495455639,4.199544066938665e-05,0.0002740043180199506,0.00383436549285042,0.0005359481263407321,1.3751889544213796e-06
2024-03-06 01:23:07.582,-0.004793265690911078,0.448487494375685,-9.842224882958952,0.000351440209708873,6.0780462421105406e-05,0.0002740296562105455,-0.0007242877674641853,0.0007515996566287331,7.18968434333597e-07
2024-03-06 01:23:07.640,-0.001044068018677164,0.41555262059608133,-9.869495310500021,0.00046434254883229674,6.944147967236483e-05,0.0002750298675036579,0.004516185934083947,0.0003452218182675496,4.0122721828013194e-05
2024-03-06 01:23:07.692,0.004152145102724147,0.35653560242306837,-9.807473793457111,0.0005695521697370943,5.7875130097524425e-05,0.0002774757966236782,0.004208252333447478,-0.0004637554161161188,9.839360492792267e-05
2024-03-06 01:23:07.747,0.006371517060948395,0.2829918110556134,-9.762214405580485,0.0005644336229363559,4.0058227673153376e-05,0.000278633693453155,-0.00020494150813058648,-0.0007125930098748872,4.670623125092358e-05
2024-03-06 01:23:07.799,0.0019846757875050494,0.22514579417655664,-9.797541611199618,0.0004837662377255378,3.20316311268261e-05,0.0002796448180996038,-0.003226786480336322,-0.0003201452369727009,4.047064419791575e-05
2024-03-06 01:23:07.858,-0.0024016655544880443,0.20987745250691653,-9.842792151512205,0.00025524946782142703,3.7145411938061554e-05,0.0002799136861881918,-0.009140614269912771,0.00020711006324897375,1.0409362690780788e-05
2024-03-06 01:23:07.911,-0.003875707086053874,0.2506467452896908,-9.826283342074184,0.0002042092500944968,5.264891237497934e-05,0.0002798949588287087,-0.0020414350467030267,0.0006207112885731599,-9.516661375190888e-07
2024-03-06 01:23:07.964,-0.0021074666386217927,0.3026615640863406,-9.789361526018533,0.0003732964426887491,6.486184482217295e-05,0.000280300186668967,0.006763623407595316,0.00048663039370080334,1.6383714686029598e-05
2024-03-06 01:23:08.018,0.0019356226222626393,0.29005844921993007,-9.794430900815897,0.0005990900202323555,6.157689600927094e-05,0.000282375088627215,0.009031701886159347,-0.00013387938233070076,8.366240118280868e-05
2024-03-06 01:23:08.072,0.0052377552250058865,0.19790552984393944,-9.815730247085687,0.0006237216309744836,4.777581137585809e-05,0.0002835787025070157,0.0009851063853373125,-0.000552291402868442,4.854970483951416e-05
2024-03-06 01:23:08.127,0.003561903601684284,0.11717917248500716,-9.81859108363451,0.00047687442250455935,3.542654752076909e-05,0.0002848837825573617,-0.00587403092627157,-0.0004922799871793231,5.215745065257573e-05
2024-03-06 01:23:08.181,-0.00038792715586903766,0.09942632132839188,-9.823812357136578,0.0002778656889862038,3.6073471672282434e-05,0.00028521984888132615,-0.007960342703946898,2.814842367481546e-05,1.3153050721528317e-05
2024-03-06 01:23:08.232,-0.0033465521968124978,0.15915212469593776,-9.80362715200988,0.0002444088720855908,4.790303650466391e-05,0.00028518895996325946,-0.0013381376388746954,0.0004735639492787764,-1.3995657402815274e-06
2024-03-06 01:23:08.283,-0.0023275008604274217,0.21930535417322716,-9.79622434861265,0.00036141651447576677,6.082827597810933e-05,0.00028582696381937586,0.004680451619774752,0.0005156840714518555,2.555806527360327e-05
2024-03-06 01:23:08.336,0.0003688315951996071,0.2098485371251354,-9.813454560482704,0.0005262345374611683,6.32023474722628e-05,0.00028684597229581936,0.00659274586894269,9.310015999498681e-05,4.1112534627337974e-05
2024-03-06 01:23:08.389,0.004064575063222611,0.1334134047580104,-9.825420099220773,0.0005424507223150674,5.236103858667474e-05,0.0002892534387622183,0.0006485180298239113,-0.00043378607511112784,9.65749732136577e-05
2024-03-06 01:23:08.459,0.00424363376817425,0.06614455173409345,-9.81084927883622,0.00042418019931427203,4.0194840066380643e-05,0.0002902345283060532,-0.0047309636211868965,-0.0004852629145273187,3.920178776442398e-05
2024-03-06 01:23:08.516,0.0007938060547990268,0.05822534354523637,-9.796606656511372,0.00031231344605640616,3.794956241859603e-05,0.00029051802338466614,-0.004474696741397678,-8.850889841136917e-05,1.1187659581831954e-05
2024-03-06 01:23:08.571,-0.002227603909753373,0.09439980555731795,-9.804145339865785,0.0002785101967878338,4.515248997726305e-05,0.0002913685330257855,-0.0013520477972641756,0.0002885193594388956,3.388872956933845e-05
2024-03-06 01:23:08.651,-0.00228974385438941,0.1331812813484619,-9.814954269153375,0.0003202743904124193,5.629749054198898e-05,0.0002920990878951435,0.001670696004196713,0.00044532261584377653,2.9155017673672084e-05
2024-03-06 01:23:08.707,-0.00040461267541969174,0.15447481267320418,-9.800152760178046,0.0004486255497436452,6.244531167902428e-05,0.00029278480609917323,0.00513411665441281,0.0002444256144467824,2.7608210517147948e-05
2024-03-06 01:23:08.760,0.0024726063960502902,0.11280953886729062,-9.825336745854305,0.0005176664015638131,5.726709014520198e-05,0.00029402613884032804,0.002761570787683976,-0.00020791158965548123,4.993342229840288e-05
2024-03-06 01:23:08.816,0.003736717677478424,0.05229276000051222,-9.825647528182692,0.00045251102693201787,4.637943640798776e-05,0.0002952348534688317,-0.0026063454729131296,-0.0004347179750592991,4.839607335164618e-05
2024-03-06 01:23:08.872,0.002348186503575842,0.028521372142222265,-9.8011491821533,0.00034410509066637034,4.1018155917415676e-05,0.0002959691559193254,-0.004336302123341405,-0.00021316094016786289,2.924440478899927e-05
2024-03-06 01:23:08.927,-0.0011161054874207885,0.0484311497263949,-9.794015065306082,0.00027984010843545555,4.389868315380312e-05,0.00029657813036974476,-0.0025705662633719027,0.00011598868893326498,2.4221106276213227e-05
2024-03-06 01:23:08.981,-0.002025451160822366,0.07980039611766561,-9.811024740000942,0.000303089645160475,5.397680177756564e-05,0.0002968720477973267,0.0009301003975644037,0.00040285247339553565,1.1675430551756319e-05
2024-03-06 01:23:09.038,-0.0009862560361796249,0.09235210198039916,-9.822056627902306,0.00038259851227715147,6.135256627377222e-05,0.00029755074088531284,0.0031804406562747573,0.0002940968470421347,2.7206912989962376e-05
2024-03-06 01:23:09.102,0.0014834314106604125,0.07346486924086154,-9.81460306742717,0.00043560566152761653,6.0625871357518654e-05,0.0002985665162846468,0.002120274942095947,-2.9680925360580985e-05,4.077405193151312e-05
2024-03-06 01:23:09.154,0.003229757675243614,0.035297316032149834,-9.80327911678028,0.000327024634706754,5.300184112240098e-05,0.0002995715713425829,-0.004343334376155596,-0.0003036513576633555,4.0038259392718376e-05
2024-03-06 01:23:09.215,0.002539962970766259,0.0259755810870513,-9.801026713240555,0.0003415160134333836,4.4486648791211585e-05,0.00030120516799344546,0.0005795502138305189,-0.0003407589791499892,6.549096554778726e-05
2024-03-06 01:23:09.272,0.0003813891215325698,0.04522824441482968,-9.811484161405179,0.0003726780648878697,4.5795182054989564e-05,0.00030150385722752307,0.0012464973003675271,5.1970352053395603e-05,1.1983660869924462e-05
2024-03-06 01:23:09.327,-0.0017726521079481621,0.03641981620422622,-9.820180571797108,0.0003413781775003722,5.247221656374928e-05,0.00030184300742832807,-0.0012519156956476503,0.00026746344712370054,1.3417377193630985e-05
2024-03-06 01:23:09.379,-0.001090107166937963,0.037103534361726836,-9.797329921588464,0.0003617294371397323,6.003649864918455e-05,0.00030200156280467253,0.0008141413529798994,0.00030232784506981124,6.275576840700865e-06
2024-03-06 01:23:09.435,0.0005486164804770423,0.047578584795024643,-9.802347607985391,0.000374224059778505,6.175598186510457e-05,0.0003027700480044754,0.0004998037937996171,6.863990040475906e-05,3.074373230511792e-05
2024-03-06 01:23:09.489,0.0024190513089865496,0.03821368864403514,-9.829359407259776,0.0003589652717616804,5.635849095089567e-05,0.00030410283057281804,-0.0006104199038254417,-0.00021569569240807512,5.335104011208795e-05
2024-03-06 01:23:09.545,0.0026438544887717793,0.03691868484744064,-9.81931397618259,0.0003842041345291572,4.992791438206298e-05,0.0003050676379536913,0.001009474383663498,-0.0002575151901377525,3.874813440322941e-05
2024-03-06 01:23:09.599,0.0010189484355909708,0.02704591601064211,-9.800793696343453,0.0003930069717249438,4.8952492662317695e-05,0.0003055463185258456,0.0003521006590926706,-3.9116750174066797e-05,1.9180178557394947e-05
2024-03-06 01:23:09.673,-0.0009739455101218207,0.00667825309049923,-9.801456518588326,0.0003188103691695629,5.290862522063023e-05,0.0003060646075385926,-0.0029678168884404808,0.00015915867592336503,2.0535572619902865e-05
2024-03-06 01:23:09.730,-0.0010464423226954713,0.0029775883326678258,-9.812479652057903,0.00027340280566662544,5.967207661226321e-05,0.0003061289018986762,-0.001816219877442834,0.0002710946183278816,2.401575223674487e-06
2024-03-06 01:23:09.783,0.00019216230537792014,0.030846804305889684,-9.81563255135225,0.00034258146591672475,6.351772129055466e-05,0.00030661785792006514,0.0027671922596658512,0.0001529854306673101,1.9670986324968612e-05
2024-03-06 01:23:09.837,0.001576303019582293,0.03445998972925872,-9.80995940015844,0.00037577005461901226,5.94575138752705e-05,0.00030767212228704273,0.0013274912660926025,-0.00016279944608028177,4.231608075678786e-05
2024-03-06 01:23:09.911,0.0028862338603124252,0.015934220089412785,-9.803984034803522,0.0003576614197435593,5.502720157137136e-05,0.00030885117875327,-0.0007244025252689612,-0.00017697275793409972,4.7182491021018994e-05
2024-03-06 01:23:09.966,0.0009648907020933147,0.02361212492985977,-9.790793806938005,0.0003936998985469062,5.178365823103325e-05,0.00030978696850991744,0.0014414971762692604,-0.00013017216854572855,3.756217329979117e-05
2024-03-06 01:23:10.018,0.00012178914968700015,0.01576208567425132,-9.826699363848503,0.00040466715256339176,5.3962811171465463e-05,0.00031000888382767323,0.00043871670085087096,8.703380746454207e-05,8.864113224231803e-06
2024-03-06 01:23:10.076,-0.0009440293928937617,-0.00544899318395599,-9.836564025222541,0.0003278516479645922,5.8729027713115805e-05,0.0003101777926168043,-0.0030725615265973674,0.00019160334935068303,6.527767153105221e-06
2024-03-06 01:23:10.127,1.103779770670558e-05,-0.0012909048405925073,-9.801710210845599,0.0006623864360164105,6.924693492795272e-05,0.00031024486233259134,0.013381522873724176,0.0004165679964673674,3.1934379208013746e-06
2024-03-06 01:23:10.183,-0.0003417467334226045,0.09876625557993163,-9.899739637145101,0.0010089427597014316,6.694715799095353e-05,0.00031214828449355436,0.013862223541937654,-9.621376352644961e-05,7.719466545694657e-05
2024-03-06 01:23:10.238,0.0044424229138247985,0.00836898990468205,-9.79228019769649,0.0004889965389385061,6.32132402816428e-05,0.00031293837615651036,-0.020797902467340933,-0.0001428495332440736,3.028285187723727e-05
2024-03-06 01:23:10.312,0.0014655682591293618,-0.24691220187856483,-9.45720660284391,-9.764359019269462e-05,5.942251312717101e-05,0.00031428716271848664,-0.0234656554233284,-0.00014429047744016752,5.245619018213556e-05
2024-03-06 01:23:10.363,0.0009442534412185599,0.0032093403045977647,-9.942908299073276,-3.6042186059069456e-05,5.837161398801366e-05,0.0003151899939280007,0.002464040725830402,-4.28116864649531e-05,3.6258150570203235e-05
2024-03-06 01:23:10.415,0.00017678043504276372,0.20060089820964885,-10.111809134760625,0.0004539452601917224,6.30085866390115e-05,0.0003157349786437868,0.01959955455270933,0.0001793120096127179,2.2863565273455446e-05
2024-03-06 01:23:10.472,-0.0004404325256917689,0.12527381616241676,-9.803483728340202,0.000557843612765026,6.990228061588815e-05,0.000315806896282958,0.004156021291515893,0.00027443729384216435,2.9855459965913086e-06
2024-03-06 01:23:10.525,0.0006498574354617133,-0.05237380438741678,-9.57302307875438,0.00043846670730429964,7.23549302237594e-05,0.0003172640564723497,-0.004775049785859371,9.963940386479675e-05,5.790903074495475e-05
2024-03-06 01:23:10.586,0.0025158941808603617,-0.07699810383096613,-9.729455694367886,0.00035879392788711685,6.946192409685496e-05,0.00031861765669153355,-0.0031869517348315957,-0.00011468978551354523,5.395461364233476e-05
2024-03-06 01:23:10.641,0.0025686300576634167,-0.020598305967972984,-9.969243958190603,0.00033635275894240837,6.627127461125335e-05,0.00031975629848011175,-0.0008976904448617265,-0.0001273246598122582,4.5526150367844306e-05
2024-03-06 01:23:10.694,0.0014319384549421066,0.015394693487930934,-9.93696823084226,0.00036742167808875576,6.45372821076148e-05,0.00032068377584820626,0.0012427322071253974,-6.974340804926612e-05,3.7207088056903496e-05
2024-03-06 01:23:10.746,0.0005374460187635297,0.015858348226005205,-9.723051641252232,0.0003542043489191433,6.451068149161201e-05,0.0003217063695233532,-0.0005286961482479106,-8.800039292628435e-07,4.0869943972072294e-05
2024-03-06 01:23:10.798,0.0003855252154699712,-0.0019356759129652902,-9.683968411868076,0.00027371198694152286,6.936698819523053e-05,0.00032172041552254135,-0.0032196320062348803,0.0001952881527984049,3.007281640587601e-07
2024-03-06 01:23:10.857,0.00016244510528983194,0.011473736595503924,-9.837845897553358,0.0002967380048468392,7.211962077798623e-05,0.0003223292363257743,0.0009210743749953324,0.0001098162221096377,2.4384143407330616e-05
2024-03-06 01:23:10.912,0.0016160199862542616,0.03216150585395555,-9.917374974315871,0.0003724843466724717,7.310395120173663e-05,0.00032324645451686204,0.003029863692193603,3.841035839214276e-05,3.6892974570640455e-05
2024-03-06 01:23:10.964,0.0018702400346488361,0.013941452169816876,-9.821473154337024,0.0004031248802744754,6.975927666672984e-05,0.00032407278597243553,0.0012255758182756395,-0.00013416977880375947,3.3196950339301704e-05
2024-03-06 01:23:11.015,0.002383929541339661,-0.011003353097622392,-9.727305084380733,0.00032131376196482727,6.472373672792026e-05,0.000325807830268118,-0.003272514534486546,-0.00020033882953974182,6.92379057758287e-05
2024-03-06 01:23:11.066,0.001349555883071656,0.002511130395631632,-9.759783094982675,0.00032170864263177075,6.645081633177314e-05,0.00032634022654195706,1.581632306115674e-05,6.908488270170191e-05,2.1274651704178897e-05
2024-03-06 01:23:11.125,-0.0006596114388252792,0.021329984107979188,-9.867547076898719,0.0003477521457722489,7.018493198817334e-05,0.0003270510264336375,0.0010417868808741413,0.00014903456082668572,2.844940382018209e-05
2024-03-06 01:23:11.178,0.0004527159019129292,0.01914396461891155,-9.87811227908011,0.0003576167137790551,7.290565254758096e-05,0.00032709651451694763,0.00039461818561641586,0.00010870042196800726,1.8083473010711995e-06
2024-03-06 01:23:11.230,0.0014853790821030659,0.005752798505969487,-9.783383180431516,0.00039002675967753737,7.450106993370378e-05,0.00032770148223114083,0.0012964209298259848,6.340211596193146e-05,2.426850653196771e-05
2024-03-06 01:23:11.282,0.0014627248093444538,0.0016757471257604103,-9.747394177022295,0.00035929309402218604,7.134801535285383e-05,0.00032975808862296263,-0.0012293938370252248,-0.00012568978254360067,8.221784005398247e-05
2024-03-06 01:23:11.334,0.0025654762030358786,-0.003812169507830967,-9.813090133976567,0.0003622397984340418,6.781015344788805e-05,0.0003304882161098678,0.0001178195316495886,-0.0001415427445867294,2.9264781630804355e-05
2024-03-06 01:23:11.389,0.0012565230321154933,0.007972943446812679,-9.849151966807666,0.00040541218335705785,6.761613162106e-05,0.0003309626030411631,0.001726891580431596,-8.323847283115985e-06,1.9095967600259918e-05
2024-03-06 01:23:11.445,0.00029176845881283633,0.013074270843580307,-9.81917604731584,0.0003681034266853405,6.868135875039792e-05,0.0003316302111851277,-0.0014923380209479731,4.311278748614424e-05,2.6587562200623608e-05
2024-03-06 01:23:11.521,0.0005529473689856573,-0.009469469846832368,-9.796665050434026,0.00027922169008774315,7.046637780259043e-05,0.0003317006415181628,-0.003555245964713137,7.258051970689557e-05,2.552820764186464e-06
2024-03-06 01:23:11.581,0.001087699700470667,0.014503486811527095,-9.79497544509941,0.00031403454404886486,7.293531028864216e-05,0.0003325521485398371,0.0013925444187362752,9.830612100945497e-05,3.412754857239312e-05
2024-03-06 01:23:11.633,0.0009994678302325994,0.03823746451697539,-9.811470750360742,0.0004318058608792689,7.269646647273752e-05,0.0003334880548419224,0.004710846837130282,-1.1104020648606434e-05,3.778473190621571e-05
2024-03-06 01:23:11.684,0.0020239605594730924,0.03327778432512877,-9.81222419028782,0.0004801750493964423,6.968824614930228e-05,0.0003345672956260499,0.0019347244964964172,-0.00012095321360824702,4.3368380772829095e-05
2024-03-06 01:23:11.737,0.0019101046293569161,-0.015879717178174952,-9.82798403014691,0.0004259981594325139,6.805486069687603e-05,0.00033562426766256754,-0.0021671004274348028,-6.459242458407732e-05,4.215540219463011e-05
2024-03-06 01:23:11.797,0.0005878284388711541,-0.0364469761248921,-9.812928456385292,0.0003288053192752873,6.981057691236105e-05,0.0003359742334729879,-0.0038876910594193353,7.153798112347519e-05,1.3710599011259312e-05
2024-03-06 01:23:11.846,0.00030096749084500404,-0.009723693612786358,-9.79495029939109,0.00027680026755183643,7.160065288261663e-05,0.00033656056447095437,-0.002080179660416689,7.230838251630403e-05,2.328802681911582e-05
2024-03-06 01:23:11.897,0.001104296988914206,0.022930890710274217,-9.800518490535726,0.0003271699165937868,7.504133591493885e-05,0.00033764653954422206,0.0020148290019332124,0.00013696347287422126,4.3538477611985174e-05
2024-03-06 01:23:11.950,0.0007110782693095175,0.03562939224529202,-9.819649438558034,0.0004002265786340404,7.640999250419438e-05,0.0003384638533466742,0.002922282493083206,5.3772744132770776e-05,3.289036344208406e-05
2024-03-06 01:23:12.026,0.001998312764626566,0.010112877291126183,-9.82212815347264,0.00039344282567638336,7.454510646574087e-05,0.0003397930552480638,-0.00027137932978992365,-7.44826776477367e-05,5.3176652240346606e-05
2024-03-06 01:23:12.079,0.0018487331917201645,-0.013354457680704219,-9.805159829498127,0.00034234302293656855,7.104288365538946e-05,0.00034106757659434775,-0.0020440433459954508,-0.00013937695625424644,5.0876218860000115e-05
2024-03-06 01:23:12.130,0.001677415235598043,-0.015786607938193982,-9.798400197440376,0.0002875216525510689,7.091623226470553e-05,0.00034164436217497756,-0.0021928581532477927,-4.3115498770707e-06,2.2916898763220723e-05
2024-03-06 01:23:12.183,0.0003109650639613587,0.0022424221200633356,-9.809736348412414,0.00024027005537806216,7.341990053759784e-05,0.00034211972793479214,-0.00189003101530714,0.00010079699220413494,1.8856394927833637e-05
2024-03-06 01:23:12.235,0.0003252225492537799,0.02549861806606729,-9.817025716725446,0.00027749689623450405,7.452763244838685e-05,0.0003423659051901434,0.0014890880198984151,4.380259595338839e-05,9.944274292028106e-06
2024-03-06 01:23:12.289,0.0015196854479981512,0.03559875885083822,-9.809321630489638,0.00036455692717905997,7.531195680566691e-05,0.0003422988112766146,0.003482412147848522,3.017984250343705e-05,-2.4351712957612274e-06
2024-03-06 01:23:12.375,0.0013394363509626383,0.010755487608826492,-9.804657753522,0.0003454275628751908,7.276922098848922e-05,0.00034278490581290033,-0.0007652108038171606,-0.00010144080504377102,1.9421197185762845e-05
2024-03-06 01:23:12.430,0.002024867967978294,-0.00398441731423899,-9.808927308530274,0.00034844877305497047,7.010360819310133e-05,0.0003438538891461792,0.00012080886277878121,-0.00010665102081951296,4.280529214764163e-05
2024-03-06 01:23:12.482,0.000917368793321959,0.008841434863156706,-9.80119090540266,0.0003959238681741883,7.032142728244976e-05,0.0003447804616414125,0.0018990042143709185,8.074513415877367e-06,3.719285067621488e-05
2024-03-06 01:23:12.533,0.00041745062737760097,0.003465933395086808,-9.816552418615508,0.0003917440928328729,7.122384988538442e-05,0.00034541108393540865,-0.0001671803629360611,3.6164421227484745e-05,2.5198971814129896e-05
2024-03-06 01:23:12.585,0.0008457712450130589,-0.015558121174301668,-9.831856282963725,0.00029773267273441395,7.440213622213814e-05,0.0003449892932550461,-0.003760411624160514,0.00012842525326315192,-1.7177635454331053e-05
2024-03-06 01:23:12.644,0.0008420876893276841,-0.006829047282153474,-9.807113744166864,0.0006899572890773548,8.216879338117874e-05,0.00034424071691902246,0.01568909532055484,0.00030523403865110563,-2.8985297372307115e-05
2024-03-06 01:23:12.697,0.0006348817688889854,0.09793472519091384,-9.905074811392636,0.0010321960478854833,7.784215739600657e-05,0.00034435526226883015,0.01368949470208077,-0.00017777175347116427,5.8909682941602065e-06
2024-03-06 01:23:12.752,0.003985318987243501,-0.022598352388580354,-9.787017014680554,0.00044219199301017667,7.652914662753486e-05,0.00034500958069385077,-0.023600187570270822,-4.4382276819400135e-05,2.4357674408068295e-05
2024-03-06 01:23:12.810,0.0007084644072403123,-0.2520829387187592,-9.450478216657052,-0.00013930724553630182,7.63331926754239e-05,0.000345761691694722,-0.023259973686238552,1.8332946448798699e-07,2.8306735024212925e-05
2024-03-06 01:23:12.863,0.0010841594243000674,0.018047298597137232,-9.949078962762814,-5.2765014679843957e-05,7.790326771591548e-05,0.00034631077585117124,0.0034617090366635206,6.160491761905431e-05,2.22309133531618e-05
2024-03-06 01:23:12.925,0.0011792542588087832,0.2141199696941828,-10.121518451536595,0.0004702471499730784,8.044567011962377e-05,0.0003468877626634833,0.020920519323805682,9.446313725954738e-05,2.4666727084204337e-05
2024-03-06 01:23:12.983,0.0011879398475330431,0.1228816104982168,-9.79896746599363,0.0005819015582997797,8.24987272551744e-05,0.0003473912591448914,0.004466203502534637,8.058495415279712e-05,2.0452344710650794e-05
2024-03-06 01:23:13.037,0.0015986119742720697,-0.06397039279291694,-9.562870359321694,0.0003582127573978337,8.412219603204244e-05,0.00034755502145514565,-0.008947530459522802,6.804920963323109e-05,5.7883048127609196e-06
2024-03-06 01:23:13.121,0.0017431443520454463,-0.07846897274433683,-9.723089639211473,0.00034398214925754214,8.216352305832729e-05,0.0003496652836476875,-0.0005692584819495685,-7.812005110513379e-05,8.438948410432649e-05
2024-03-06 01:23:13.178,0.002460442564375487,-0.009615677570610255,-9.988208013215466,0.0003854409013316017,8.056005346456883e-05,0.0003508943912723264,0.001658323703693293,-6.469963606073431e-05,4.932551543467429e-05
2024-03-06 01:23:13.231,0.001693650607695227,0.007631788640935584,-9.941080951136417,0.00046103450769001777,8.04219361569617e-05,0.00035160668807122307,0.003023740104433119,-6.572448206272944e-06,2.8738539767794048e-05
2024-03-06 01:23:13.283,0.0009534225343563427,-0.004118166211749564,-9.697153983120945,0.00040953980105508386,8.149783629606735e-05,0.0003524248708729855,-0.0020597758557245782,4.3773575278819836e-05,3.2543757381893506e-05
2024-03-06 01:23:13.341,0.0008407986909697949,-0.021916229405130102,-9.676555177658503,0.00033448263922539586,8.368174874633119e-05,0.00035261362706414317,-0.003002256325993642,8.841702143634846e-05,7.2760368522404665e-06
2024-03-06 01:23:13.397,0.0015786656536472628,-0.0014312184250739382,-9.86979016721314,0.0003985874487623747,8.547042955859442e-05,0.0003533032840466129,0.0025642152620660563,7.065414224255986e-05,2.7772728462671184e-05
2024-03-06 01:23:13.449,0.001741131128775276,0.014375057318058685,-9.931402647400708,0.0004574843058780832,8.362370698274078e-05,0.0003549790947142853,0.002355842650282374,-7.467046275071629e-05,6.726797812285968e-05
2024-03-06 01:23:13.529,0.002338847482729788,-0.01038833014034012,-9.799927473257947,0.00043909257604757165,8.214054484225478e-05,0.0003564896076564956,-0.0007356952337702557,-5.903882366802625e-05,6.038493185945199e-05
2024-03-06 01:23:13.587,0.0018074353016422709,-0.031561757715934405,-9.71085485512987,0.0003764219960840058,8.020197208047963e-05,0.00035702868581125854,-0.0025068526124693603,-7.664119747206283e-05,2.138609230285541e-05
2024-03-06 01:23:13.647,0.0012710550287196587,-0.019195758338829107,-9.787301347449079,0.0003257915568096023,8.24149367854418e-05,0.00035743862734073255,-0.002025187303131908,8.924693282768594e-05,1.6206181486824037e-05
2024-03-06 01:23:13.699,0.0005811530493473249,-0.004081357530462978,-9.879999604187926,0.0002902336619245473,8.305386137378861e-05,0.0003581191660641869,-0.0014223088894667975,2.6073241003103493e-05,2.709677411475933e-05
2024-03-06 01:23:13.757,0.0014825595690807032,0.015189512175077576,-9.846307521535378,0.00033002348615068924,8.527107028104131e-05,0.0003586943987457644,0.001591622741772661,8.812600671709437e-05,2.3112428162491286e-05
2024-03-06 01:23:13.815,0.0013785230122566774,0.023182105714420424,-9.766243120582402,0.0003984719637442315,8.737751609788475e-05,0.0003601115133110073,0.002737964379747927,8.329842749487731e-05,5.6884901672648844e-05
2024-03-06 01:23:13.868,0.0018902089562159085,0.002650123200601198,-9.770037421703424,0.0004131160778203609,8.773018851134717e-05,0.00036058156707621136,0.0005857680048731805,1.3903743495618788e-05,1.8847594150214025e-05
2024-03-06 01:23:13.931,0.001972796471338986,-0.02609263310645322,-9.830928592591212,0.0003074258941314411,8.350649587747524e-05,0.0003621106012532186,-0.004227673360165935,-0.0001674045796698083,6.084202447400981e-05
2024-03-06 01:23:13.984,0.0023928519908947214,-0.009626269059392803,-9.833822304825357,0.0003088712699402627,8.392283072076793e-05,0.0003624217942351661,5.782001864867358e-05,1.6636303083411448e-05,1.244741061766707e-05
2024-03-06 01:23:14.049,0.0006290902447484687,0.029550265805270936,-9.799238201453212,0.00036718329745245377,8.470748344943303e-05,0.0003628731358820378,0.0023324909214840405,3.054747025510224e-05,1.8238225732798485e-05
2024-03-06 01:23:14.106,0.0012276046688971963,0.019407933046013664,-9.805908612812553,0.0003807023306909677,8.697522889553978e-05,0.00036324733683933065,0.000540792949018956,9.051929446197643e-05,1.4979390016864201e-05
2024-03-06 01:23:14.159,0.0011049113411873896,-0.005361511348383311,-9.814850054162227,0.00035512821508229813,8.878974445812413e-05,0.00036370269869124216,-0.0010229398698074607,7.295864119892626e-05,1.8099601113475345e-05
2024-03-06 01:23:14.212,0.0016800839714590388,-0.011006240788638098,-9.812498371640764,0.00039969758334641156,8.890643473634922e-05,0.0003649036911122199,0.0017827721664300346,4.038480194769348e-06,4.819639624164306e-05
2024-03-06 01:23:14.268,0.0018122875920699633,-0.004722762381205446,-9.804717544428451,0.0004223436448911485,8.774645500861833e-05,0.00036560784753856884,0.0009058230745274854,-4.67177956515845e-05,2.82665297632285e-05
2024-03-06 01:23:14.322,0.0021436846855505893,-0.01638713492338708,-9.809322282415408,0.00038687515870006157,8.542937641303877e-05,0.0003663360306669116,-0.0014187758370613002,-9.215320516391599e-05,2.903849774794192e-05
2024-03-06 01:23:14.378,0.0016045698009319919,-0.03150401295690491,-9.814786258568894,0.0003233179629461461,8.628976253495064e-05,0.0003669561032351725,-0.0025422773393399913,3.5354729235822715e-05,2.4574319363798684e-05
2024-03-06 01:23:14.430,0.0005773268252138986,-0.016988383169108306,-9.810625668296675,0.00027978794697757625,8.652173573700427e-05,0.0003677576856898429,-0.001741199959960349,9.926804511867484e-06,3.1910290484001054e-05
2024-03-06 01:23:14.483,0.0015560265126060326,0.013547346479757269,-9.804920572740073,0.0003424175250823672,8.784634402758767e-05,0.00036743774010131484,0.0025052036761090885,5.2058723202384245e-05,-1.2598867591526096e-05
2024-03-06 01:23:14.538,0.0014858741541517776,0.01244023501414737,-9.807877708038536,0.0003373995591887387,8.84626905277029e-05,0.0003688365870958133,-0.00020071451640494336,2.474648335964724e-05,5.59279056682192e-05
2024-03-06 01:23:14.592,0.0013358093004750982,0.010241538603414382,-9.805335663191864,0.00034378843161035025,8.652613591313213e-05,0.000369385164407506,0.0002555244243556086,-7.754888070313698e-05,2.199236040358259e-05
2024-03-06 01:23:14.644,0.002477740050019296,0.022499151759806678,-9.800053760593066,0.0004136189907193022,8.394892391324226e-05,0.0003695355050910738,0.0027931837786611294,-0.00010411764345019745,6.2984127394852485e-06
2024-03-06 01:23:14.696,0.0014748579228371634,0.0059219791553283,-9.833265560216695,0.0004384629736549859,8.409812153223497e-05,0.00037006713373294477,0.00099375975692114,5.610036706821958e-06,2.134611909245112e-05
2024-03-06 01:23:14.751,0.0007792124534320544,-0.02841243386109368,-9.824486634648574,0.00032880531484565,8.540522405515656e-05,0.0003706777255136635,-0.0043862890933383724,5.391525291560138e-05,2.403715695856163e-05
2024-03-06 01:23:14.805,0.0009702356686197276,-0.026095555528796204,-9.794462193252917,0.0002779886148656793,8.826865884921897e-05,0.00037070457187438755,-0.002032625580273871,0.00011529109936724618,8.682271516249737e-07
2024-03-06 01:23:14.865,0.001402032190099154,0.007802247903360153,-9.791991580844325,0.0003780797253831868,8.926223688162175e-05,0.00037146745129115457,0.0040036563611238465,3.8270636123072814e-05,3.085418342082158e-05
2024-03-06 01:23:14.917,0.0020964691343706324,0.020984789970580394,-9.815727080589085,0.00040553138613762664,8.822677980916859e-05,0.0003719567408714759,0.0010980493237561593,-4.181819410545153e-05,1.968656478594545e-05
2024-03-06 01:23:14.973,0.001996586918931139,-0.002851653244829559,-9.824050775704356,0.00038012863477607836,8.777556943616313e-05,0.0003721497320774983,-0.0010161174490606942,-1.7667561677553764e-05,7.636721325080136e-06
2024-03-06 01:23:15.025,0.0013671275756706833,-0.020953309222690567,-9.812893904319415,0.0002682171788606086,8.814603003134868e-05,0.00037264114149864895,-0.004476454362276403,1.648952450868146e-05,1.9259126062053923e-05
2024-03-06 01:23:15.109,0.0012641024408558351,-0.002532483454382222,-9.80126848456944,0.0002502873725160949,8.958164770741894e-05,0.0003727469869150932,-0.0007171712038997666,5.769300138142827e-05,4.156163849884461e-06
2024-03-06 01:23:15.186,0.0012196611738130878,0.020961255000037836,-9.804516285629635,0.00039124492275617557,9.311136183411012e-05,0.0003728105549213078,0.00563835428294088,0.0001390881132000134,2.9935442819217004e-06
2024-03-06 01:23:15.246,0.000884981481051661,0.0228181447729141,-9.803751949228952,0.0004636571073932401,9.49641452416842e-05,0.0003735525163093402,0.0028965122554114606,7.304537896888437e-05,2.9914330223744733e-05
2024-03-06 01:23:15.297,0.002107120476428227,-0.01903766452030778,-9.807932656067829,0.0004097745149763144,9.542597434070076e-05,0.000374284020714071,-0.0021552996284644184,1.929019310106328e-05,2.9047621665018093e-05
2024-03-06 01:23:15.351,0.0017744679961016877,-0.02985355899084219,-9.828966668548714,0.0003727116041988108,9.211353748979597e-05,0.0003754180569591957,-0.0014825702032346668,-0.00013192571572242232,4.526916104912524e-05
2024-03-06 01:23:15.408,0.002707883921706043,-0.010602019525613408,-9.816228225242684,0.0003658346967843886,9.273474624184213e-05,0.0003752569749332964,-0.0002750663687534228,2.494924880054164e-05,-6.4777462389665926e-06
2024-03-06 01:23:15.460,0.00027574252894703216,-0.008121361407456808,-9.800743218662307,0.0003705695400810697,9.562762322205236e-05,0.00037598785859358457,0.00018943436586257964,0.00011565483363740509,2.92100597143353e-05
2024-03-06 01:23:15.513,0.0009903111715921017,-0.0036813654858127566,-9.80355292560421,0.00033845754019307475,9.963877982058354e-05,0.00037689150747175084,-0.0012844232442165847,0.00016094138868548953,3.596866939155959e-05
2024-03-06 01:23:15.566,0.0013649191492672457,-0.007691871898759639,-9.812725241809163,0.00032465161499201436,0.00010403806450933887,0.0003774364199952284,-0.0005521729327618185,0.00017618655976967695,2.1684287953203658e-05
2024-03-06 01:23:15.618,0.0016928399523686733,-0.0024123404946457686,-9.814535080882452,0.0003574863425244232,0.00010640562270310509,0.0003774217407375697,0.0013134248865905467,9.42064357658088e-05,-4.841936087424205e-07
2024-03-06 01:23:15.674,0.0023240657616297447,0.00853624384645009,-9.80711085706702,0.00038005412759363727,0.00010286095800977046,0.0003780299852284208,0.0009026553775607759,-0.00014211798591122927,2.4479847152255088e-05
2024-03-06 01:23:15.725,0.0028121684778282664,-0.004194039757722264,-9.804303757828203,0.00037020820846557116,9.841972685290048e-05,0.0003792734122124022,-0.0003939088142002737,-0.0001774819400754822,4.976227457341267e-05
2024-03-06 01:23:15.779,0.0019005294013793468,-0.015645398350838804,-9.814185741801305,0.000275660323717335,9.881154883076648e-05,0.00038064788766172344,-0.00378191477999638,1.712233004184508e-05,5.460215709911989e-05
2024-03-06 01:23:15.833,0.00017019476148266108,-0.0029144567613870187,-9.81734953756926,0.00034224243417050405,0.00010299277053628217,0.00038136947996912,0.0026633450375290768,0.000166245051933904,2.9070003031375767e-05
2024-03-06 01:23:15.889,0.0006393655335021088,0.008628345391928896,-9.808423369909086,0.00039017576242978953,0.00011085718336654306,0.0003821358285973042,0.0019174496967307869,0.0003138572993660008,3.072899092384041e-05
2024-03-06 01:23:15.945,0.0003132245887101445,-0.0167159113392729,-9.799527935892414,0.0003497489139283802,0.00010989311325371242,0.00038280533883690017,-0.0016170916002820309,-3.7935549206188674e-05,2.6614427497468434e-05
2024-03-06 01:23:15.999,0.004257225853207853,-0.012653305215457102,-9.795805067209471,0.0003182366646843711,0.00010400818211845852,0.0003836585863079436,-0.0012605836063092212,-0.0002349038744508942,3.406613614011363e-05
2024-03-06 01:23:16.058,0.0027026811688803526,0.02140747217892219,-9.810047782666574,0.0003717579063279229,9.842311134799014e-05,0.0003840222608638418,0.002140762478716707,-0.00022421865818389027,1.4853018029870526e-05
2024-03-06 01:23:16.112,0.00137064082848124,0.019339424115985743,-9.841789396543746,0.0003748238423287662,9.442462153219469e-05,0.00038448756637254124,0.00012257425835885468,-0.0001599796843327331,1.8684251405215425e-05
2024-03-06 01:23:16.163,0.0009723204236447949,0.0015779415367374724,-9.82236573385014,0.00034109876996684833,9.448248272395789e-05,0.00038484098497451515,-0.0013490033190970098,2.837903459443204e-06,1.400840760583348e-05
2024-03-06 01:23:16.215,3.49344856436632e-05,-0.008947587532676325,-9.78880999681604,0.00034224615927040295,9.562790763179386e-05,0.0003847291387732012,4.591363220955808e-05,4.579779811170652e-05,-4.485184754769195e-06
2024-03-06 01:23:16.268,0.0012310306358000673,-0.008950474541571036,-9.79103008346396,0.00035774338688906966,9.648547907358223e-05,0.0003848887940881026,0.000619901677107399,3.4066670224230046e-05,6.433308131300802e-06
2024-03-06 01:23:16.321,0.0016314851584841737,-0.007573795032354726,-9.81946112514239,0.0003998764177179461,9.443914337242383e-05,0.00038602383732996344,0.0016852854339441947,-8.248385188069206e-05,4.559733945308263e-05
2024-03-06 01:23:16.405,0.002247484185434028,-0.0010671847978913694,-9.825471228827693,0.00046361242921593294,9.258738584717806e-05,0.0003873720555739472,0.002549406918006454,-7.502930936660601e-05,5.420431952057618e-05
2024-03-06 01:23:16.462,0.001389417766348785,-0.041581726353284394,-9.80787109564857,-0.008931484590558146,8.461726737290037e-05,0.0004611560410548856,-0.3758089843598881,-0.00019911401417597113,0.0029155868046417646
2024-03-06 01:23:16.516,-0.01724558518332429,-0.47211788345895517,-9.709795196354802,-0.005279817213686567,6.350315285426368e-05,0.0013569607588604096,0.1460677812041739,-0.0011011437059740812,0.03583937324369391
2024-03-06 01:23:16.576,-0.21650122152408605,3.3684085240458743,-9.838988071504616,0.0026632698905950008,0.00011714855296976458,0.0024849448837750707,0.31772201808205885,0.0018349805345384935,0.045136612576451976
2024-03-06 01:23:16.630,0.06742050470987267,1.6333407821552202,-9.898294038313445,0.0004250668150970003,0.00017181324727705654,0.003614568521879581,-0.08953026299717046,0.0024282823717016806,0.04517389152963943
2024-03-06 01:23:16.684,0.09942766638004245,-0.7461836672803694,-9.779698216575563,-0.004522204519812863,0.00022375796703885182,0.004548868751496736,-0.1978915577315854,0.0026242877981079212,0.037352341530702854
2024-03-06 01:23:16.744,0.14782375595136923,0.14226763648386165,-9.67605412613716,-0.0032940731834211574,0.0002597524544210589,0.004879194050790068,0.04912804669625327,0.001172752488661267,0.013228224398315808
2024-03-06 01:23:16.796,0.25334204344241257,1.446478608394592,-9.756544979676796,-0.001444734680252891,0.00027600176138732575,0.004935038437532721,0.07397541373993353,0.00028579745129141034,0.0022537669846266154
2024-03-06 01:23:16.848,0.08334942944853482,1.0333143527861386,-9.923239232892914,-0.0028411557290721774,0.00024673884801473724,0.004982278249176074,-0.05586256155628462,-0.0009001547958704367,0.0018718398971352503
2024-03-06 01:23:16.902,-0.028328603839842793,0.4876917229292189,-9.889214202435758,-0.00427878659587406,0.00021554128615598823,0.005151015845341139,-0.057512701854101164,-0.0009901719465949502,0.006731430595735047
2024-03-06 01:23:16.989,-0.0763416123055646,0.8975835207134861,-9.723107800000815,-0.002008926286671829,0.00020735126102524183,0.005275007300437525,0.09079090803619103,-0.0008052570633685622,0.00497821815151216
2024-03-06 01:23:17.045,-0.013591206120702602,0.829419855912763,-9.742150458647243,-0.0016624852681562153,0.00022346624889252653,0.005278528562133902,0.013860838285510824,0.000571252197750766,0.00014468909344484364
2024-03-06 01:23:17.098,-0.007037646475933752,0.15197524777544882,-9.851176382591952,-0.00459694855684175,0.0002244969186106442,0.005242473835295633,-0.11737693349907613,0.0006675903701997123,-0.0014644767008718384
2024-03-06 01:23:17.151,-0.03352532389651377,0.25429429908375323,-9.827883261049124,-0.003953669258979427,0.00025331930622204106,0.005169407515255514,0.02573789715960567,0.0010295056560370656,-0.0029128234069293367
2024-03-06 01:23:17.209,-0.030580805471752695,0.841244677637258,-9.802935086237555,-0.0014089532542134937,0.00027670679943457636,0.00511288841689584,0.10179314710998236,0.00041247602657969455,-0.0022337589136385673
2024-03-06 01:23:17.264,-0.04559384871655024,0.3118112651609122,-9.799064137272284,-0.002183273565135453,0.0002662066412947875,0.0050909606057503555,-0.030974361181842627,-0.00025970377356975894,-0.0008862026293810498
2024-03-06 01:23:17.318,-0.053651183223446974,-0.49435338531374223,-9.806439466654869,-0.003196612274620624,0.0002556763284792239,0.005089526501193271,-0.040535298649444974,-0.00021462762941656694,-6.873771169038118e-05
2024-03-06 01:23:17.374,-0.020835907081951145,-0.3540357785012343,-9.813192113793644,-0.001480963069397973,0.0002512477784086279,0.005088482011806421,0.06862438286485448,-0.0005263632060078548,-2.471424207764878e-05
2024-03-06 01:23:17.433,-0.022112866322620602,-0.3246705213718148,-9.817817434008521,-0.0005137957991447294,0.00024014283775993417,0.005087604635949113,0.038683958030766394,-0.0006410307642669632,-2.5610314710558127e-05
2024-03-06 01:23:17.489,-0.023695522361344996,-0.9395719641650373,-9.81232449372434,-0.001928038985576715,0.0002306350760554886,0.00509291212682803,-0.05657102648260755,-9.28745005117368e-05,0.00019874191821079895
2024-03-06 01:23:17.544,-0.025729774148465615,-1.1156794201585924,-9.797578864100833,-0.003021236517645085,0.00022483865968793207,0.005097287721473088,-0.043728691855942844,-9.64357717298787e-06,0.0001650339149707033
2024-03-06 01:23:17.596,-0.022166527053173277,-0.6172574035775591,-9.79758119240716,-0.0007603094010463676,0.00023523748766550911,0.005093381293731521,0.09043824574124089,-4.491088344905611e-05,-0.0001354379215722725
2024-03-06 01:23:17.650,-0.018232863247073464,-0.6106642446945175,-9.835818874065986,-0.002141840970347985,0.00023333426514205027,0.005090543112871416,-0.05526096695295462,0.00020561795340211545,-0.00012589378214687125
2024-03-06 01:23:17.718,-0.01935671279090005,-0.8937951218490012,-9.814583043992767,-0.004633363406356333,0.00022572452485406075,0.005088761991435924,-0.0996617325561669,0.00020340656901187388,-9.292706036500615e-05
2024-03-06 01:23:17.775,-0.016561080187888502,-0.23665294033074755,-9.795256145710066,-0.00397491828629556,0.00023668387499979992,0.005073703838523657,0.02634009257803927,0.00030670950410233253,-0.0005951296424218611
2024-03-06 01:23:17.825,-0.01085284441907884,0.3877954955421665,-9.797867294688494,-0.0034189635955603147,0.00024193702758594455,0.005044936952988076,0.02223941734202904,0.00010120815225418591,-0.0011450556975726462
2024-03-06 01:23:17.905,-0.008951897673338042,0.20262622476188705,-9.825044683108779,-0.004186209440621319,0.00023962476680297696,0.005014233004440428,-0.03068981119790179,6.751310070990746e-05,-0.0012352674081844367
2024-03-06 01:23:17.959,-0.012046971706567046,-0.008183595102873305,-9.836683700167695,-0.004261941460158877,0.00024033158664119205,0.004982108652518891,-0.0030287915318299805,4.893974807282842e-05,-0.0012855184674512373
2024-03-06 01:23:18.011,-0.012040067732613808,0.0610570743550446,-9.804900642437923,-0.0030469298852272555,0.0002497890422206627,0.004947407716279548,0.04860243809350736,0.00014035712594973244,-0.0013758053709619707
2024-03-06 01:23:18.065,-0.010575360691029675,-0.27567522338644007,-9.793242160738119,-0.0021248088002246263,0.0002546630070593026,0.004943669008739328,0.03688551950672783,1.2773301474729649e-05,-0.00014022545997577145
2024-03-06 01:23:18.117,-0.015898940382334092,-0.9146125276268097,-9.816212392759667,-0.0009277724404928876,0.0002603988294507842,0.004943326941090113,0.04788206409889771,-7.271661889459734e-06,-1.3540032094719682e-06
2024-03-06 01:23:18.172,-0.008627446276878113,-1.6014024320323728,-9.836406817979414,-0.000959467178773903,0.0002602177362144366,0.004944430383799769,-0.0012678220636165604,-1.018509830214253e-06,4.38072481185897e-05
2024-03-06 01:23:18.225,-0.005913158830654714,-1.7893586622017512,-9.804454445813619,-0.0010944158596584944,0.0002592601119770363,0.004946191671978448,-0.005398091953417173,-1.1690090140735393e-05,6.903674288211011e-05
2024-03-06 01:23:18.278,-0.005116163931973874,-1.820336905925365,-9.787765984259485,-0.0002305843176061998,0.00026314679245628887,0.00494618858474517,0.03455361546838578,-1.5439938547022102e-05,8.905251979840797e-06
2024-03-06 01:23:18.330,-0.004254728062552278,-1.9143711448340412,-9.812191221470243,1.9744038836068688e-07,0.00026373649937694175,0.004945872415211363,0.009231277168082846,-2.2071352980772083e-05,-1.0212452627140338e-05
2024-03-06 01:23:18.381,-0.00381264119449827,-1.9843840494718528,-9.82834789785953,-0.000877428847411662,0.00025880768900531017,0.004944308463173238,-0.03510558406235439,-2.34579651748519e-05,-7.176200312394705e-05
2024-03-06 01:23:18.433,-0.003256741824698033,-1.8717693440055134,-9.809987153569846,-0.002187747538934724,0.00025329436530355216,0.004944376251074554,-0.05241326159736776,3.864695263451034e-05,-1.0599256327301928e-05
2024-03-06 01:23:18.483,-0.003442696784266994,-1.3182385780567605,-9.787503630702677,-0.0008020662235945819,0.0002593245158259419,0.004944268434820576,0.05542783331418545,-3.284857283523745e-05,9.890559949338665e-06
2024-03-06 01:23:18.537,-0.0013165316488497876,-1.0610015791737655,-9.824416412929784,0.001817528221500147,0.0002711795189927684,0.004944535143900399,0.10478487868631287,-4.3778708777914154e-05,3.860031836942015e-05
2024-03-06 01:23:18.626,-0.0017194297506234768,-1.7462754723988017,-9.85166001838198,0.0023745372838365345,0.00027334643466784273,0.004944799922532672,0.022280564395605613,-2.3449370081080593e-05,1.6719793530494092e-05
2024-03-06 01:23:18.678,-0.0015691140384247668,-2.6095406426241876,-9.805468656049202,0.000556796813361853,0.00026428476542217724,0.004944473719854678,-0.07271060443921573,-2.9276977327801527e-06,-3.259527623762121e-05
2024-03-06 01:23:18.729,-0.0010532481993897225,-2.4884605995272375,-9.74239316129866,-0.001096811228871094,0.0002554086289227084,0.004944499957695868,-0.06614527663049974,-2.796017318696302e-05,-1.619212954016663e-05
2024-03-06 01:23:18.784,-0.00047840456078079136,-1.5436411567724317,-9.764725996180413,-0.0006672479854307882,0.00025732619835592516,0.004944606228593744,0.017182704080303705,-8.262033381804331e-06,8.652289825268302e-06
2024-03-06 01:23:18.839,-0.00025568694248659547,-0.8957821392129276,-9.854212587173244,0.0009993538230393482,0.00026532437106863106,0.004944445084805468,0.0666648473617641,-9.679200501457271e-06,1.0993350742398258e-05
2024-03-06 01:23:18.892,8.261435978163052e-05,-1.1379041867022277,-9.882163625219516,0.0017338843305150552,0.0002687474076317321,0.004944183726417749,0.02938156797002693,-8.355817926845901e-06,-2.5908825148246433e-06
2024-03-06 01:23:18.944,0.0004130977980208905,-1.7082571637620074,-9.803157858586822,0.0008282326441399321,0.0002640504770159633,0.004944594743840156,-0.03622658759816798,-8.756419441769585e-06,6.793341885440601e-06
2024-03-06 01:23:18.996,0.0006879463057977702,-1.7830879046232595,-9.734056893329228,-0.00037786362596327794,0.00025792648493473593,0.004944829945201525,-0.04824447723443935,-6.401543950583688e-06,-3.189519311127172e-06
2024-03-06 01:23:19.049,0.0010471581191502212,-1.2385751230946451,-9.772818164514632,-0.00042470544098926945,0.00025757215627387635,0.004944891147573279,-0.0018737205008806334,-4.9088001802591825e-06,1.962969178974671e-06
2024-03-06 01:23:19.102,0.001331123342409605,-0.7369356636575248,-9.856448226907421,0.0005468353888238473,0.0002622684238892506,0.004944896559790068,0.038862087205614605,-4.307602590800347e-06,1.0322113331072534e-05
2024-03-06 01:23:19.153,0.0015483738824402483,-0.7588941127028318,-9.866615009310314,0.0012298748346920864,0.0002655645754915003,0.004944735387495238,0.027321907829065448,-3.254582856863996e-06,7.689353304121677e-07
2024-03-06 01:23:19.207,0.0017667797535356787,-1.1027839791570018,-9.798314888296593,0.0008717328270716494,0.0002637265121783096,0.004944871623129738,-0.014325877637343585,-2.682765469967866e-06,1.6600246339896052e-06
2024-03-06 01:23:19.261,0.001928036635317962,-1.2470244070531382,-9.753963353622582,6.707758216186581e-05,0.00025969114129759455,0.0049450713205807404,-0.03218661986911704,-2.252790879191279e-06,-4.363855256392195e-07
2024-03-06 01:23:19.312,0.0021905927820612147,-0.9673654282599344,-9.789083898772226,-0.00016728044620842094,0.00025850451683187786,0.004945106653432359,-0.009374441317781573,-1.1072565239733782e-06,-1.0159108000649296e-06
2024-03-06 01:23:19.363,0.002367188495896651,-0.6081555681154747,-9.84338577649307,0.0003465339806449365,0.00026103716477294907,0.004945119289745216,0.020552826230491334,-3.2660928069054464e-07,5.844747205018091e-06
2024-03-06 01:23:19.415,0.0025770078222361404,-0.526365228607667,-9.84358656963062,0.0007529892264858533,0.0002630524187423495,0.004945072035733433,0.016258412180900163,2.1302314303525479e-07,2.370098220641668e-06
2024-03-06 01:23:19.468,0.0026559562332252803,-0.7559298353247144,-9.795500804138797,0.000706151216177696,0.00026283171988470745,0.004945120927343073,-0.0018735421026601232,4.3789629412716524e-07,1.4627506583803876e-06
2024-03-06 01:23:19.523,0.002857048901472334,-0.8051332926267778,-9.785885457806142,0.0003852881728888764,0.0002612705736493798,0.004945228181402346,-0.012834676250840713,1.0240864631111032e-06,9.266018126975841e-07
2024-03-06 01:23:19.580,0.002955771511222145,-0.6972443388686875,-9.804696775936023,0.00027466566428793537,0.0002607564193078179,0.00494526857936888,-0.004424948455365279,1.316412762119735e-06,4.606642899538113e-07
