Timestamp,Linear_Acceleration_X,Linear_Acceleration_Y,Linear_Acceleration_Z,Orientation_X,Orientation_Y,Orientation_Z,Angular_Velocity_X,Angular_Velocity_Y,Angular_Velocity_Z
2024-04-19 19:09:59.677,2.0539592073018042e-05,-0.0068222517654382715,-9.810481685833478,0.00035481901972337363,6.011273737145533e-06,1.2183790301346089e-08,-4.380941331238965e-05,6.696198124456273e-06,-3.564093213542213e-08
2024-04-19 19:09:59.734,1.6554527806096156e-05,-0.006779862129340909,-9.810549392981436,0.00035481901972337363,6.011273737145533e-06,1.2183790301346089e-08,-0.0,0.0,-0.0
2024-04-19 19:09:59.792,2.6087966635731873e-05,-0.006674938391741323,-9.810413513024255,0.00035481901972337363,6.011273737145533e-06,1.2183790301346089e-08,-0.0,0.0,-0.0
2024-04-19 19:09:59.852,2.0654493311635396e-05,-0.006806664482181762,-9.810479078130392,0.0003537312350309743,6.1908098227415565e-06,1.1637127115887659e-08,-4.35113901868495e-05,7.181435677563277e-06,-2.4668385950499418e-08
2024-04-19 19:09:59.912,1.514914814914131e-05,-0.006810920553386027,-9.810469206111572,0.0003537312350309743,6.1908098227415565e-06,1.1637127115887659e-08,-0.0,0.0,-0.0
2024-04-19 19:09:59.969,2.6997307106539786e-05,-0.006661065051168897,-9.81049584193594,0.0003537312350309743,6.1908098227415565e-06,1.1637127115887659e-08,-0.0,0.0,-0.0
2024-04-19 19:10:00.027,2.0641699279742985e-05,-0.006804144045109189,-9.810481685833478,0.00035263599975719013,6.381423554583268e-06,1.0587087005603117e-08,-4.380941330861726e-05,7.624534402800578e-06,-4.496150826566547e-08
2024-04-19 19:10:00.087,1.4485632360591431e-05,-0.006816026229025598,-9.810482244626996,0.00035263599975719013,6.381423554583268e-06,1.0587087005603117e-08,-0.0,0.0,-0.0
2024-04-19 19:10:00.146,2.7830196202417787e-05,-0.006665642378623936,-9.81048271028826,0.00035155566564231333,6.581174070827435e-06,9.629616407373992e-09,-4.321336691728866e-05,7.990007052723678e-06,-4.138352153262634e-08
2024-04-19 19:10:00.203,1.4217580925618272e-05,-0.006843307067006327,-9.810472000079162,0.00035155566564231333,6.581174070827435e-06,9.629616407373992e-09,-0.0,0.0,-0.0
2024-04-19 19:10:00.262,2.8698816536787494e-05,-0.0066635316234203166,-9.810483641610793,0.00035155566564231333,6.581174070827435e-06,9.629616407373992e-09,-0.0,0.0,-0.0
2024-04-19 19:10:00.321,2.045699263854114e-05,-0.006775285847804727,-9.810493327365108,0.00035046788094606157,6.789572518103589e-06,8.3232408833059e-09,-4.351139007431217e-05,8.335919384378914e-06,-5.546285240457253e-08
2024-04-19 19:10:00.380,1.4443022979926415e-05,-0.006804283243266684,-9.810470789359874,0.00035046788094606157,6.789572518103589e-06,8.3232408833059e-09,-0.0,0.0,-0.0
2024-04-19 19:10:00.437,2.7935629903620034e-05,-0.0066893499030405935,-9.810495935068193,0.00035218896494985594,7.023684649059132e-06,8.237179937184633e-09,6.884336452437793e-05,9.364483037306333e-06,-6.273088805950697e-09
2024-04-19 19:10:00.496,7.549762101052101e-06,-0.007544636133378774,-9.811162296338681,0.00037339704095521625,8.151828700049021e-06,9.331984175147978e-09,0.0008483230961851469,4.5125770547150635e-05,3.290069660195213e-08
2024-04-19 19:10:00.556,-1.1455366954924026e-05,-0.009242160574410633,-9.81473643281352,0.0003955327607849036,9.23346817755475e-06,9.992704793045486e-09,0.000885428858926594,4.326558084294543e-05,1.6533735847008194e-08
2024-04-19 19:10:00.614,2.7000529595329083e-05,-0.008996636625087966,-9.811959135895673,0.00041202084642267737,1.0251137051759638e-05,9.34639384059609e-09,0.0006595234800931082,4.0706736832031824e-05,-3.6534776246372884e-08
2024-04-19 19:10:00.672,2.9388579950385337e-05,-0.008179590052194808,-9.80901056876449,0.00042808807216911956,1.121165024300527e-05,8.929022027372221e-09,0.0006426890872566279,3.842051385117482e-05,-2.655394470739956e-08
2024-04-19 19:10:00.731,2.8983665467689712e-05,-0.00686720317514044,-9.808975737301854,0.004346072816559675,1.1933368506109358e-05,2.9766097018545697e-07,0.15671993637644613,2.892833107621183e-05,1.3180765134758241e-05
2024-04-19 19:10:00.791,0.00020344336732625704,0.23770612032061358,-9.84685011004158,0.001684833437094342,1.373074707517064e-05,-2.9327690475949086e-07,-0.10645009020646112,7.188645152197935e-05,-2.5028931714636278e-05
2024-04-19 19:10:00.851,-2.0658304307417634e-05,-0.9879694933299845,-9.762147629755056,-0.0015615338033165764,1.6326328160191792e-05,-1.1817398853067964e-06,-0.12985474631675398,0.00010384620659245749,-3.715946653377011e-05
2024-04-19 19:10:00.910,0.0002227086050600208,-0.23825990261422236,-9.75024905310692,0.0017969385764969685,1.7150378902162284e-05,1.1951279438466366e-06,0.13433895756822617,3.329919670131508e-05,9.720802471068179e-05
2024-04-19 19:10:00.970,0.00020238227909275143,0.39858607122754713,-9.846688432450303,0.00587499227760941,1.637751905768065e-05,4.476740942393908e-06,0.16312345903026593,-3.0315489007670915e-05,0.00013424295886994267
2024-04-19 19:10:01.030,0.00021080873289358782,-1.0748242856319634,-9.903166345263381,0.003178667511938297,1.5010147052914935e-05,7.827253862549566e-06,-0.10785413063706963,-5.378899652863876e-05,0.00013242643317873864
2024-04-19 19:10:01.090,0.0008499618780766385,-1.9562504722096266,-9.768959415874509,-0.0015460216381511678,1.621731553894943e-05,8.244980118667539e-06,-0.18898780461370202,4.9751179008192565e-05,1.3952753645794432e-05
2024-04-19 19:10:01.149,0.00030205937932828507,-0.4539934586233772,-9.659149784020483,-0.0007271879531253078,1.7851768458024345e-05,8.553988150353205e-06,0.0327533697829072,6.509889155943416e-05,1.2938946057485453e-05
2024-04-19 19:10:01.208,0.0003462515656268426,1.0810882358248346,-9.786062129690155,0.002635132952718009,1.9992644955081974e-05,7.99268349333897e-06,0.1344929619345413,8.44355212616121e-05,-2.0271888709858637e-05
2024-04-19 19:10:01.268,0.00011842066782035004,0.5445082791662568,-9.963315904020229,0.0031730757176553514,2.0980104396956506e-05,8.24252337126187e-06,0.021517801698935017,3.935938607831632e-05,1.0299000662825468e-05
2024-04-19 19:10:01.327,0.0008299765742370285,-0.6491502918823018,-9.893105640496698,0.0017750636340185266,2.06693610056376e-05,1.0007586178931389e-05,-0.05592066059327783,-1.184472752708477e-05,6.945074816068254e-05
2024-04-19 19:10:01.386,0.0003391261524616092,-0.7207891474149688,-9.69291665187222,0.002195715845687503,1.940096938705949e-05,1.2279285001201015e-05,0.016826119478676037,-5.070357381758341e-05,9.132732424821518e-05
2024-04-19 19:10:01.445,0.0006896759500544823,-0.3352774380714173,-9.696407900641855,0.0018794389106878292,2.0168847006805304e-05,1.3970209918941178e-05,-0.012651104695320287,3.0997093960196857e-05,6.733343938175238e-05
2024-04-19 19:10:01.505,-0.0001216192912566422,-0.2232224574458363,-9.85277006170594,0.0005583390719752609,2.2091925119759538e-05,1.3536115453522392e-05,-0.05284403516724211,7.765176882074495e-05,-1.8472452825025854e-05
2024-04-19 19:10:01.565,0.0005641575642470665,0.09580183522925377,-9.908316931385395,-0.0003228262089835322,2.4097065933090493e-05,1.2895746386309215e-05,-0.03524661090569245,8.06915939794666e-05,-2.636716989860175e-05
2024-04-19 19:10:01.623,0.0004843366181885399,0.6879504326866268,-9.799290541779419,0.001693148261333455,2.5008850160897957e-05,1.3174959181694947e-05,0.080639011555121,3.545557926611448e-05,1.3052709446005567e-05
2024-04-19 19:10:01.682,0.0006365164306394635,0.6616689532575043,-9.758718500198196,0.0035949874326514776,2.5168345567834747e-05,1.5329687435488415e-05,0.07607384212629577,5.6960132993520526e-06,8.807269347045938e-05
2024-04-19 19:10:01.741,0.00028566342173827567,-0.19461710129354878,-9.82146998784042,0.0036273006127454425,2.451748933099949e-05,1.8556585900997986e-05,0.001292532071308802,-2.558557644329035e-05,0.00012920212644571731
2024-04-19 19:10:01.801,0.0003493339794489496,-0.8959165290540615,-9.84958586997457,0.0011238568466308673,2.4093078722558662e-05,2.1204592430603102e-05,-0.10013806217328997,-1.4998840429102285e-05,0.00010348437781139931
2024-04-19 19:10:01.859,0.0009445627319302328,-0.4858502712767908,-9.76860169489059,-0.0001501701933473098,2.5282976807998243e-05,2.1411694003929644e-05,-0.050961090256194004,4.867625413983175e-05,7.0642518741465706e-06
2024-04-19 19:10:01.919,0.0005902989304761182,0.546158838803786,-9.748326803404217,0.0005529523365625553,2.608242760889259e-05,2.1721112742648172e-05,0.02812490269203414,3.1383312548124176e-05,1.3070690993180672e-05
2024-04-19 19:10:02.023,0.0006656277175700398,0.9832116250006547,-9.833433291404416,0.0011343175168019005,2.683306216867843e-05,2.0850854527098813e-05,0.023254617384456396,2.948162579528698e-05,-3.423710852470103e-05
2024-04-19 19:10:02.113,0.0004618567069246595,0.70510383518618,-9.884583014888936,0.0020288676579709535,2.6980630367050956e-05,2.1398115354371092e-05,0.03578205110587275,5.203421998590825e-06,2.2840398638840228e-05
2024-04-19 19:10:02.171,0.0006822221695271123,0.2861448791521706,-9.832188392578058,0.0031737276355985715,2.6375561768679576e-05,2.5307040067492303e-05,0.04579455188662939,-2.4681669121737435e-05,0.0001576722421410377
2024-04-19 19:10:02.229,-0.00024253919533169486,-0.19585486386101875,-9.76242888915923,0.0025057681378026415,2.4731307815701284e-05,2.883139731984478e-05,-0.026718493270966648,-6.474206892043183e-05,0.0001404324702841679
2024-04-19 19:10:02.290,0.001116927033235336,-0.44419995611142576,-9.761776590858954,0.00026421994603271706,2.5707475903371686e-05,2.9444365986340187e-05,-0.08966203187240403,4.164018006831475e-05,2.229318513073091e-05
2024-04-19 19:10:02.348,0.0005916795945269085,0.1287008094356942,-9.805031213856681,-0.0003730468634202992,2.6073298977618276e-05,2.964202357511343e-05,-0.025490672602742334,1.5380982301485875e-05,7.256980233796652e-06
2024-04-19 19:10:02.407,0.0008128009523509564,0.9727991073273546,-9.84146212980657,0.0006231405111888506,2.7332288761201648e-05,2.873543360088255e-05,0.03984749939407093,4.915698947437195e-05,-3.525469363382625e-05
2024-04-19 19:10:02.467,0.00031952276248215937,1.0915594646525264,-9.839467423211001,0.0023009070053748343,2.736744957738104e-05,2.8928102521066094e-05,0.06711073914112384,-4.985257205403306e-07,9.543836131336096e-06
2024-04-19 19:10:02.526,0.0006262436088900847,0.4928269189464181,-9.823101012987875,0.002281263515628249,2.719801940621774e-05,2.9429748463004813e-05,-0.0007857423923793916,-6.708732620370224e-06,2.005969073532984e-05
2024-04-19 19:10:02.584,0.000593227628332243,-0.07929782355745417,-9.78839853852212,0.0023862123801822845,2.6863736263065933e-05,3.345628327339155e-05,0.004197961302026671,-1.3110227125785818e-05,0.00016120731801258585
2024-04-19 19:10:02.640,-0.00040396364866264993,-0.17737923511644735,-9.789397195671445,0.0021216199085317077,2.6016900284963434e-05,3.59433438710385e-05,-0.010583729487604502,-3.3308773080816804e-05,9.926904430233402e-05
2024-04-19 19:10:02.712,0.0012361404723777013,-0.09714210293791513,-9.803799539810255,0.0002790987546467048,2.7361153653443106e-05,3.5393994734963194e-05,-0.07370090706522796,5.6414287246950535e-05,-2.3904739149845453e-05
2024-04-19 19:10:02.772,0.0006921418345005667,0.3257831591202378,-9.804539754957402,-0.0005988591124080042,2.8824917289909216e-05,3.473592050288285e-05,-0.035118313390323896,5.981027269546456e-05,-2.7247488077591173e-05
2024-04-19 19:10:02.829,0.0005049459177868851,1.056695562888427,-9.812543168254475,0.0019191430261443093,2.9901113638024972e-05,3.47628069668042e-05,0.10072013545384796,3.956047755709923e-05,3.907194796381425e-06
2024-04-19 19:10:02.886,0.0006846192620709586,0.9552084212511504,-9.848550518717545,0.0034200550881731528,2.9877819258006648e-05,3.6395575129366054e-05,0.06003670001131886,-2.7879425938659707e-06,6.711738377743248e-05
2024-04-19 19:10:02.957,0.0004328689009470095,-0.0010841205434034135,-9.835214445743768,0.0031635798558415596,2.9832135666008262e-05,4.016082317480425e-05,-0.010259069437361802,-9.78415407359145e-07,0.00015030729871046047
2024-04-19 19:10:03.018,-0.00018845398372666674,-0.5843517325800487,-9.784733691232821,0.0015916899533598595,2.8538222390377662e-05,4.462811386240321e-05,-0.06287578739151502,-4.894841291404931e-05,0.00017689602888828882
2024-04-19 19:10:03.097,0.0013050848741324877,-0.23900205880486872,-9.747826124411883,0.00027478488497122524,2.904424450569302e-05,4.601244294978147e-05,-0.052676230109264144,2.260751680259593e-05,5.386521578613028e-05
2024-04-19 19:10:03.167,0.0010585988443069564,0.5459844020938459,-9.791108314556514,0.0006531663782399099,3.02104315446199e-05,4.60320408913451e-05,0.015135263550366087,4.595194379830204e-05,1.1936276922641722e-06
2024-04-19 19:10:03.226,0.0007242252931319474,0.9765773231258444,-9.863930192719735,0.0004307702290939542,3.0883712356780316e-05,4.607598135455801e-05,-0.008895846090994171,2.7341395204260466e-05,1.4771389961549694e-06
2024-04-19 19:10:03.286,0.0006123362532174284,0.9360277173226573,-9.846962427538742,0.0009698830593408281,3.076189765942724e-05,4.5406599610079286e-05,0.02156451932406743,-5.891334650137564e-06,-2.6103307977666912e-05
2024-04-19 19:10:03.345,0.0007099534461061841,0.8352502434535302,-9.798028227221742,0.0026088508906590936,3.069530410511834e-05,4.680262078703916e-05,0.06555882361795688,-5.487924136346937e-06,5.787451365876767e-05
2024-04-19 19:10:03.402,0.000293570697618692,0.38671326820284435,-9.792338219090132,0.0033801088522935844,2.9407399940437e-05,5.0992129922443323e-05,0.030850450182229382,-5.2389738141121315e-05,0.00016870593310852456
2024-04-19 19:10:03.461,0.00022505959972498883,-0.28639807518916033,-9.816808811708121,0.0008871444821775069,3.0458732659770044e-05,5.148479612150337e-05,-0.09971882588045944,4.7156702387322275e-05,1.6738689632346974e-05
2024-04-19 19:10:03.520,0.0008305479187815448,-0.1372426624881329,-9.790735506147602,-0.0012759381801371696,3.1378324598128124e-05,5.152743670734868e-05,-0.08652332299703523,4.1242306667685165e-05,-8.723254825294589e-07
2024-04-19 19:10:03.579,0.0009709076373795321,0.9504886562005417,-9.77775640909972,0.0005053617610423902,3.313529665938182e-05,5.0873410227651896e-05,0.0712520167072941,6.659734424019589e-05,-2.3955680358205263e-05
2024-04-19 19:10:03.635,0.00029234044551031964,1.4382122681952774,-9.83553575201675,0.003275767154810727,3.4481045216718896e-05,5.065097426560152e-05,0.11081645206853658,4.818007459300973e-05,-5.375553479075406e-06
2024-04-19 19:10:03.694,0.0007466945917300306,0.49818611258408824,-9.879846774160688,0.0027024821575662517,3.404226077988194e-05,5.35164967524414e-05,-0.022931507383917197,-1.6081962904897243e-05,0.00011387440738475304
2024-04-19 19:10:03.753,0.00025835881326199283,-0.33917521494632963,-9.80470282953247,0.0020734220616894063,3.365849604469798e-05,5.915372785554147e-05,-0.025162484330752875,-1.3537922823949209e-05,0.00022466163310599723
2024-04-19 19:10:03.812,-1.913147593848207e-06,-0.22808225557003634,-9.741144723446684,0.001566421368943615,3.2847393376760744e-05,6.276130957760676e-05,-0.020280068113992723,-3.101928288112384e-05,0.00014366974229698446
2024-04-19 19:10:03.870,0.001954480067460493,0.18384180584602794,-9.769050406085727,0.0008696541507368498,3.362654147044391e-05,6.389391143072108e-05,-0.02787070945941619,3.2954035659294e-05,4.436056171062025e-05
2024-04-19 19:10:03.928,0.000922532707883558,0.5120475853426132,-9.849179906483577,0.0003182143182855026,3.438170323867418e-05,6.361520046406578e-05,-0.022057595095965173,3.161223617913918e-05,-1.1899830781085477e-05
2024-04-19 19:10:03.987,0.0008964907778423964,0.8494066427743632,-9.856226479012937,-0.00011254476432371377,3.56520419322745e-05,6.300790461606825e-05,-0.017230359383584828,5.1912588441710025e-05,-2.487816466089831e-05
2024-04-19 19:10:04.045,0.000528569269893977,1.0757932510548682,-9.795698710176504,0.0014132225036258789,3.599600571462908e-05,6.264417328237156e-05,0.06103071077286353,9.897303443624845e-06,-1.2384450617906084e-05
2024-04-19 19:10:04.102,0.0007163426858730596,0.9246639264441466,-9.79536660056217,0.00261344413993424,3.661431399855363e-05,6.292668590269727e-05,0.04800896664899781,2.175986731512589e-05,1.2973616404038893e-05
2024-04-19 19:10:04.160,0.000474730174648986,0.25769563030017106,-9.827659929906337,0.002747521070729282,3.6786896017192486e-05,6.708194191477522e-05,0.005363090836988126,7.022993322476299e-06,0.00016638796166376608
2024-04-19 19:10:04.219,-0.0002984400936513926,-0.21191895514925319,-9.825385081493632,0.001988347712709494,3.619432924107347e-05,6.923349752257929e-05,-0.030367024793601823,-2.1496223480572453e-05,8.49887993071775e-05
2024-04-19 19:10:04.288,0.001712368291985766,-0.14186287789139265,-9.780181759233335,-0.00012676045913478102,3.642912810663781e-05,6.925376846387134e-05,-0.08460437841329974,1.5252930242142562e-05,-2.243230770240129e-06
2024-04-19 19:10:04.345,0.00113734438682816,0.48082101610780525,-9.759628588574884,-0.0003699809268811923,3.750276983693834e-05,6.860429775985136e-05,-0.009728815054868339,4.362920932584437e-05,-2.6317018381203412e-05
2024-04-19 19:10:04.404,0.0004685992455759997,1.2124954728993875,-9.824806357673253,0.0025759192295991703,3.733629559750538e-05,6.942622517490078e-05,0.1178361185078528,-1.4640361110896956e-05,3.7346014870844706e-05
2024-04-19 19:10:04.483,0.0008254863138425232,0.8771032566020581,-9.892158858012312,0.004519083313897022,3.692071764859325e-05,7.3989508333429e-05,0.07772705661169113,-2.1178353854116696e-05,0.00018553620972755906
2024-04-19 19:10:04.573,-0.0005649665540615267,-0.3494407058959119,-9.843423960716816,0.0020241739257681537,3.552294551870685e-05,7.77961395166708e-05,-0.09979694469740646,-4.822149861220132e-05,0.00014868780131915648
2024-04-19 19:10:04.654,0.0016948832060156014,-0.6484233873713829,-9.721130602268818,-0.0009743422835117459,3.699490694995703e-05,7.832901337346531e-05,-0.1199407055882973,6.819909244308729e-05,1.713476041916972e-05
2024-04-19 19:10:04.714,0.0009012412048683285,0.5596137281597591,-9.717887644085781,-0.0002628639552836362,3.885157589345066e-05,7.861320681059675e-05,0.028459144438551107,7.203468841261541e-05,1.2440309598931354e-05
2024-04-19 19:10:04.771,0.0008958716052475223,1.5058273316387145,-9.855790526936467,0.001387659525089218,3.9889413571979564e-05,7.743847161198974e-05,0.0660209620260705,3.626383194728938e-05,-4.447047232611741e-05
2024-04-19 19:10:04.842,0.0007037189113807322,1.1359923096042053,-9.923396998929562,0.0021745675955291586,4.1449456551834914e-05,7.7372910189263e-05,0.0314763783800524,5.996161898048077e-05,-1.4963178654839568e-06
2024-04-19 19:10:04.899,0.000501006393356367,0.3828470034988623,-9.829174167208484,0.001667488426870243,4.063609378245847e-05,7.92601378286671e-05,-0.020283209890380405,-3.08404078090057e-05,7.470030564711619e-05
2024-04-19 19:10:04.955,0.0007387412257867055,0.14329388115276775,-9.715442922443534,0.002567526201984158,3.9195616571575636e-05,8.53573375014001e-05,0.036001578709743014,-5.984177242871273e-05,0.00024550668990306224
2024-04-19 19:10:05.028,-3.4805368666024544e-05,0.09026086344075944,-9.770066572098624,0.002206102288991065,3.838492308996472e-05,8.921588254938618e-05,-0.014457006382157451,-3.0854305350885744e-05,0.00015384381647264936
2024-04-19 19:10:05.086,0.001851517422034116,-0.018205876994412645,-9.856836960931602,0.0003309622604137298,4.0209749053218826e-05,9.006393329337423e-05,-0.07500566696571005,7.96977028640012e-05,3.102284353924488e-05
2024-04-19 19:10:05.142,0.0008671910493029051,0.367969025667831,-9.841188972908409,-0.0005051903659946915,4.1973677190306034e-05,9.103654576581938e-05,-0.033446101271653254,7.35509903872329e-05,3.759806131510001e-05
2024-04-19 19:10:05.200,0.0010405208076097927,1.1086579351298933,-9.776931071073298,0.00041432309815731005,4.318745430082392e-05,9.020277568697402e-05,0.036780545571237416,4.519023946708237e-05,-3.182417544280301e-05
2024-04-19 19:10:05.271,0.0008042399160780175,1.2643636302253742,-9.79141201883367,0.0023321174490053185,4.497982523269091e-05,9.00005049677323e-05,0.07671186456095888,6.47670923814611e-05,-4.922263324431732e-06
2024-04-19 19:10:05.329,0.0006509223130194488,0.6390817741927035,-9.861529895162187,0.002356044996893892,4.452902886800878e-05,9.208065066225117e-05,0.0009570992278789873,-1.792180518855815e-05,8.329133514574472e-05
2024-04-19 19:10:05.385,0.0007502689512129603,0.004404439614502322,-9.83704430825146,0.002421408851401234,4.276780893435889e-05,9.728129063700827e-05,0.0026145462810220083,-7.018533886007878e-05,0.00020831258926123483
2024-04-19 19:10:05.443,0.00046100250669915574,-0.14017486744661048,-9.773019143916688,0.0014059432956567708,4.139784103205444e-05,0.0001004623051688418,-0.04061870871070514,-5.0669890884421e-05,0.00012557677849629238
2024-04-19 19:10:05.501,0.0017455146486029143,0.0991028133507413,-9.749750702420915,0.00026850030297638884,4.304353645333227e-05,0.00010072247272932666,-0.045497731664165125,7.04019811189521e-05,8.506891878121674e-06
2024-04-19 19:10:05.572,0.0006753766647117382,0.6055772133316493,-9.81303658293107,-0.00019817801181693418,4.519515336476461e-05,0.00010102114390906489,-0.018667124529513655,8.79428531692836e-05,1.1161215505902366e-05
2024-04-19 19:10:05.630,0.0007226859563692857,1.0899865074648412,-9.858304259578215,0.0005832873647495367,4.74724977225359e-05,0.0001000130203802459,0.03125862735669457,8.79138336490958e-05,-3.896225490080064e-05
2024-04-19 19:10:05.702,0.0006989900251673543,1.1107093941921562,-9.841675682062787,0.002163294785135211,4.913521666547133e-05,9.979068652428624e-05,0.06320036968225443,6.017739259219938e-05,-6.018278137593966e-06
2024-04-19 19:10:05.761,0.0009604876252883463,0.5652762593663399,-9.806791040910088,0.002906594602665464,4.852040297270654e-05,0.00010226332856787967,0.029732081504010154,-2.7267144932488596e-05,0.00010044735602663227
2024-04-19 19:10:05.819,0.0007487564274897016,-0.04795406484449533,-9.787060786839481,0.00366307802250083,4.686011835751609e-05,0.00010461609987146406,0.030259489400990585,-6.915468138524374e-05,9.583418763133007e-05
2024-04-19 19:10:05.876,0.0014124038000214788,-0.518470296923085,-9.803227335247588,0.0006095953203006577,4.6739055781406276e-05,0.00010471628633044894,-0.12213963414863396,7.942951946836469e-06,-1.7013443825383836e-06
2024-04-19 19:10:05.934,0.0007699896716877077,-0.150106118381571,-9.771276825726853,-0.0022071713063830287,4.7242450059312456e-05,0.00010531223147575119,-0.11267073653843623,3.190052817485264e-05,1.8658761193883617e-05
2024-04-19 19:10:05.991,0.0006750111999151297,1.217753155291629,-9.783459455746755,-0.0003665872083467301,4.9774817368654275e-05,0.0001067254245661579,0.07362344261876276,9.352244297724786e-05,6.00472974797451e-05
2024-04-19 19:10:06.049,0.0005981958338541706,1.8694185462404547,-9.8549561550815,0.0003122650284905761,5.1386282923879805e-05,0.00010694184989579254,0.027154096248224735,6.156417181769657e-05,9.990363146385647e-06
2024-04-19 19:10:06.106,0.0009523691064837074,1.2793123812927572,-9.861496833212358,3.786757784409508e-05,5.0394325506454905e-05,0.00010818955175399361,-0.010975904910565085,-3.850256745238854e-05,4.9345682799899015e-05
2024-04-19 19:10:06.167,0.0015295102583630581,0.8616064615157157,-9.805198293118632,-0.00012951344823236433,4.822418335621156e-05,0.00010881443929974918,-0.0066952516083506886,-8.608449495553405e-05,2.4647011032844207e-05
2024-04-19 19:10:06.225,0.0013723537707211987,0.8759419483383751,-9.753090704411617,-2.3115427509764932e-05,4.712813343535241e-05,0.0001093229787150409,0.004255915084305082,-4.4305566178687663e-05,2.0545815282011454e-05
2024-04-19 19:10:06.297,0.0004719960717015757,0.8689985197792532,-9.790037293646575,0.00010924786836937098,4.765258785004481e-05,0.00010983958564948036,0.005294533115210002,2.0401663787038756e-05,2.091160858260337e-05
2024-04-19 19:10:06.355,0.00042806190335331406,0.7734333088667144,-9.848518108693488,-4.0862711386784735e-05,4.811102073506076e-05,0.00011089177703473638,-0.006004423167029644,1.899515221978671e-05,4.180235514134518e-05
2024-04-19 19:10:06.411,0.0005151808278198555,0.6972372433551592,-9.835355634239374,-8.581579147335234e-05,4.991931078566437e-05,0.0001115712420355074,-0.0017981165301014387,7.25286756417735e-05,2.709831969297926e-05
2024-04-19 19:10:06.484,0.0007432237416210304,0.6865352648186511,-9.790457506372283,3.177300259189406e-05,5.165316808857626e-05,0.00011194436805312487,0.004703558698277284,6.883000619343756e-05,1.5157683148195874e-05
2024-04-19 19:10:06.558,0.0010764714034233816,0.639027833155897,-9.789237846386497,8.402765204021674e-05,4.9129178128377395e-05,0.00011360935427294078,0.0020901713927161795,-0.00010118797364290428,6.671592218570282e-05
2024-04-19 19:10:06.616,0.0017884386582869224,0.5584194059675656,-9.820006973277446,2.6561321199353988e-05,4.7509986595248086e-05,0.0001139720756958511,-0.0022986612677856665,-6.450612675208166e-05,1.4397646556751727e-05
2024-04-19 19:10:06.672,0.0007972523084065827,0.5071572514809484,-9.824751595908467,-8.67247574795928e-06,4.708094966273337e-05,0.00011457349230877787,-0.0014093549558914548,-1.7001057190609187e-05,2.3989561653755633e-05
2024-04-19 19:10:06.730,0.0004835747913564683,0.49203856024521725,-9.802351985201286,-9.761378628055368e-05,4.743418908436537e-05,0.00011570498280129196,-0.00355765292863415,1.4532795460519939e-05,4.509355931528888e-05
2024-04-19 19:10:06.787,0.00038465644698744807,0.4820173522849707,-9.793490078795708,-0.00015762821457652036,4.9453863658570146e-05,0.00011633468694767808,-0.002400569031814374,8.106079139572853e-05,2.5087083116878847e-05
2024-04-19 19:10:06.845,0.0005899109571077954,0.4811028546781786,-9.813126548687505,-9.017438660777705e-05,5.2478661173616095e-05,0.00011685058938296101,0.002698166109403156,0.00012067614239440633,2.0780424870294025e-05
2024-04-19 19:10:06.903,0.0007992364960597782,0.45766822740800717,-9.82960173738218,1.0177493617108632e-05,5.0771442021501045e-05,0.00011834499188789742,0.00401406416721554,-6.875719132260776e-05,5.9987476704146684e-05
2024-04-19 19:10:06.959,0.0019567067207053226,0.3938151220003411,-9.817276428750626,2.0753593313333118e-05,5.012534785832247e-05,0.00011856241932184586,0.0004230404899908578,-2.589365040388681e-05,8.719113457406668e-06
2024-04-19 19:10:07.017,0.0009674290704215166,0.333549428051551,-9.793872293562176,3.1627716256692576e-06,4.9216526146194156e-05,0.00011900108685302657,-0.0007036380354712691,-3.626938806211948e-05,1.751154673359257e-05
2024-04-19 19:10:07.073,0.0006584983470372274,0.29766636585434,-9.794868343008417,-0.00010576472168725462,4.990373281766507e-05,0.00011966005513388261,-0.004357097748721485,2.8004012833749198e-05,2.6147280460146706e-05
2024-04-19 19:10:07.130,0.00041545843901358103,0.30266004486646286,-9.814254100875035,-0.00019807370319395158,5.135682034828483e-05,0.00012061351669005713,-0.003692354277726947,5.8557818656609674e-05,3.7965820208720604e-05
2024-04-19 19:10:07.185,0.0006113251566368081,0.3268780118825113,-9.822757168709657,-0.00018487127359962974,5.45080707448253e-05,0.00012113483210297368,0.0005281112536775689,0.00012598245756083678,2.0903030109930753e-05
2024-04-19 19:10:07.241,0.0005086722964598247,0.33289917502286104,-9.815099369203608,-6.706640448675598e-05,5.617075929597456e-05,0.00012177778123736685,0.004712201373523097,6.593500385034948e-05,2.59792743136923e-05
2024-04-19 19:10:07.299,0.0014687275366188017,0.28583621703773077,-9.807882271518935,9.130686982710809e-06,5.430820148468303e-05,0.00012312108341315582,0.0030478716432299196,-7.487297746908377e-05,5.390398655009696e-05
2024-04-19 19:10:07.356,0.0016560796675666055,0.21539705335372153,-9.804942272555031,-2.568215413897709e-05,5.285382429447043e-05,0.0001234917716975749,-0.001392521578837691,-5.8004016891431934e-05,1.475041948182353e-05
2024-04-19 19:10:07.428,0.0008562794780861264,0.18072401886626616,-9.805226139662292,-0.00012062864474886138,5.3545396043035724e-05,0.00012384921694231683,-0.0037978569512783535,2.8130183090155213e-05,1.4100494326920743e-05
2024-04-19 19:10:07.485,0.00034818410961537035,0.18755917390527402,-9.80812003816094,-0.00021195786065817223,5.4003751934605575e-05,0.00012479374345807112,-0.003653168425554808,1.877871985562847e-05,3.7589452428254415e-05
2024-04-19 19:10:07.562,0.0007313839756828459,0.2145725302345128,-9.811220317732323,-0.0002561621564991016,5.670030877433997e-05,0.00012541615670458244,-0.001768159818855004,0.0001080765753533119,2.4828733636194258e-05
2024-04-19 19:10:07.619,0.000346288442793077,0.2336978670385748,-9.814718458288683,-0.00016538800393263835,6.005242387318256e-05,0.00012603118127404474,0.003630981485938933,0.00013362512624547085,2.482898176870221e-05
2024-04-19 19:10:07.674,0.0009022954171801067,0.21424566367498707,-9.817097056031272,-5.702674663110978e-05,5.9054050436615775e-05,0.00012765391761510945,0.00433444141272419,-4.0484914881173966e-05,6.516746896685607e-05
2024-04-19 19:10:07.731,0.00194456663252545,0.16181052446846222,-9.811145160004122,-5.259365411314931e-05,5.7438140010927034e-05,0.0001279769196069269,0.0001773147061734539,-6.465973253337621e-05,1.292715031978551e-05
2024-04-19 19:10:07.788,0.0011442855647972744,0.11368651363485288,-9.801160358023665,-0.00010697544091423986,5.76999325762451e-05,0.00012844525027432701,-0.0021752711988576303,1.0748099931194222e-05,1.8609440807153858e-05
2024-04-19 19:10:07.844,0.0004457039197846448,0.10068102014159594,-9.801637753952736,-0.00022989140865875768,5.65814854374474e-05,0.00012897046303850948,-0.004916645669609949,-4.411111207274724e-05,2.0714719238386505e-05
2024-04-19 19:10:07.900,0.0010234384060840535,0.12891495108992385,-9.811031631787667,-0.0002913438151308441,6.007435543677231e-05,0.0001296011923647422,-0.002458079817405104,0.00014002450955195763,2.5130897553202953e-05
2024-04-19 19:10:07.956,-0.0001545904223591331,0.16154929722983932,-9.817850216561592,-0.0002500042513039109,6.297154810964393e-05,0.0001302329575049478,0.0016535960214963596,0.00011566705593196181,2.5398867050186805e-05
2024-04-19 19:10:08.014,0.0009288404569290251,0.1683007605703652,-9.816978126144145,-0.00015266241121584105,6.463813668500896e-05,0.0001313050142757819,0.0038936795508667356,6.61498855226356e-05,4.313758610261907e-05
2024-04-19 19:10:08.071,0.0013808240593224076,0.12717079130982947,-9.811468142657656,-9.364635168959766e-05,6.322699763885795e-05,0.00013210054609083522,0.002360632950836182,-5.675851488004965e-05,3.1968553909067325e-05
2024-04-19 19:10:08.128,0.001757155952859,0.07608978487613702,-9.803525544721817,-0.00012267753258273574,6.181143431724319e-05,0.00013259507008337682,-0.0011612559327657478,-5.647154710675033e-05,1.9700611763674215e-05
2024-04-19 19:10:08.185,0.0006668326803978335,0.053488450072672264,-9.80170136328156,-0.00022247062994003403,6.244714108329215e-05,0.00013325559507700778,-0.0039917221917413785,2.595174226004664e-05,2.618006651155551e-05
2024-04-19 19:10:08.242,0.0005593084399976542,0.0722527389613542,-9.808633290007434,-0.0002980642033205874,6.351681103566214e-05,0.00013395081679612393,-0.0030237390718762416,4.318150137931664e-05,2.763293252230437e-05
2024-04-19 19:10:08.312,0.0005557244029231232,0.1035756033078248,-9.815074968553313,-0.0003312230088517378,6.666577930524047e-05,0.00013464654242113607,-0.001326337258903606,0.00012612720090732213,2.7786561279716438e-05
2024-04-19 19:10:08.369,0.000492653182297254,0.1265774791951278,-9.816130529509246,-0.0002454593967994776,6.879878298222638e-05,0.00013545353026383385,0.0034305538508022917,8.485026362739497e-05,3.252906270194165e-05
2024-04-19 19:10:08.425,0.0012861714836444485,0.10740135548173531,-9.814486465846365,-0.00014749915834037544,6.789187247559721e-05,0.0001365816701957096,0.003918401592868994,-3.6813864168555137e-05,4.538977553122651e-05
2024-04-19 19:10:08.482,0.001544559211731157,0.06525382395210208,-9.807821921818965,-0.00012945756829365568,6.685300005649431e-05,0.00013674444013275718,0.0007216574898437842,-4.165431085633303e-05,6.5544007108669794e-06
2024-04-19 19:10:08.552,0.0010389249855444918,0.024637054696863246,-9.801767021519952,-0.00021364541671141222,6.729108851353018e-05,0.00013732025107605417,-0.0033675131026035796,1.797916356763726e-05,2.2811170714737017e-05
2024-04-19 19:10:08.610,0.000518098702689543,0.020861986113690032,-9.80423009021605,-0.0003398582508182859,6.694892695866693e-05,0.00013798816466029575,-0.005048517171165147,-1.3002140910363837e-05,2.6372449850462278e-05
2024-04-19 19:10:08.668,0.0011182699816795034,0.06416600667670942,-9.811996575061395,-0.0003854110963786417,6.967306628250028e-05,0.0001386388949093574,-0.0018221007022235485,0.00010920701231244028,2.5949319819471502e-05
2024-04-19 19:10:08.726,0.0005774826131224,0.1019468060584859,-9.816850628089735,-0.0003118850472238002,7.312607765748055e-05,0.00013940501313998232,0.002941059012183506,0.0001377030907904223,3.0892606207846774e-05
2024-04-19 19:10:08.798,0.0011943089647305975,0.10486771691229328,-9.816543477919216,-0.00022786485007902785,7.22569006146855e-05,0.0001408448265463265,0.003360798958540497,-3.52487624534711e-05,5.783028824152586e-05
2024-04-19 19:10:08.853,0.002284393456829854,0.06293081925241575,-9.81077905711743,-0.00018029661616189365,7.23909753965313e-05,0.0001410394161364083,0.0019027295642333538,5.0935767663415055e-06,7.921993901018037e-06
2024-04-19 19:10:08.909,0.0014768889380965921,0.021748422445134915,-9.802450519125,-0.0002102069734341827,7.185650490668254e-05,0.00014164960626692158,-0.0011964190683012598,-2.1215188293375232e-05,2.43165390614649e-05
2024-04-19 19:10:08.967,0.0010834839738810232,0.001977605685825911,-9.801806230198483,-0.00033687054778628814,7.267452675639134e-05,0.0001420377797867862,-0.00506653959756801,3.343346096550862e-05,1.517418622058956e-05
2024-04-19 19:10:09.037,0.0010057125655090812,0.029809225810134187,-9.80965560274903,-0.00040595979471750817,7.243042810780917e-05,0.00014289467414203765,-0.0027635739044776404,-9.385239510536823e-06,3.407113955646861e-05
2024-04-19 19:10:09.094,0.0014587216686047391,0.07304536883137067,-9.816065150667612,-0.0004393644673575019,7.336132765275885e-05,0.0001434358287325233,-0.0013361832774187303,3.7417445713340996e-05,2.156584873733502e-05
2024-04-19 19:10:09.151,0.0009071900730058639,0.09604029745277468,-9.816232602458575,-0.00035995618989962595,7.602184217763641e-05,0.00014414880435739352,0.003176344402389904,0.00010595463369212504,2.8790205184234628e-05
2024-04-19 19:10:09.226,0.0011591746147935418,0.0815053056553251,-9.813360403774883,-0.0001519099020911186,7.762893077143891e-05,0.0001450532572684114,0.008321858143747371,6.307843184320778e-05,3.682046736381754e-05
2024-04-19 19:10:09.285,0.0014241036984709429,0.025794145088117663,-9.807195514285032,-0.00014914573649600407,7.689582707540872e-05,0.00014523566560778182,0.00011056180912969966,-2.9341274747016224e-05,7.300540443684252e-06
2024-04-19 19:10:09.340,0.002073155330191672,-0.041098393334029884,-9.801026526976047,-0.00033786519993537123,7.423930866029694e-05,0.00014611724895804097,-0.007548796723594169,-0.00010517604089705812,3.464743358806988e-05
2024-04-19 19:10:09.396,0.0018267545825434068,-0.02620587804942645,-9.804276842607074,-0.00049781053353865,7.280511503773108e-05,0.00014710890269341106,-0.006397825095997674,-5.6452377903139324e-05,3.916315684511688e-05
2024-04-19 19:10:09.465,0.000703757411426498,0.057410994351601616,-9.812434017253915,-0.0005234405545794098,7.376041529293261e-05,0.00014787805101059172,-0.0010251976131889827,3.8346757053298714e-05,3.071137186192044e-05
2024-04-19 19:10:09.522,0.0007233994833506453,0.10128133973074302,-9.818359836250215,-0.00046511742134234705,7.624644491595518e-05,0.00014792641126202576,0.002332940136045675,9.90952101727543e-05,2.152589904600946e-06
2024-04-19 19:10:09.577,0.0010625811974093809,0.10524852178014153,-9.8172863939017,-0.000227175698065026,7.643949418652164e-05,0.00014991589770201106,0.009517664448162549,6.295899728520084e-06,8.030674664489591e-05
2024-04-19 19:10:09.647,0.0017065803361906986,0.044202750079016896,-9.810420497943234,-0.00014565513045828156,7.55130485185974e-05,0.00015018466161324497,0.003260816348931749,-3.7548267080977424e-05,1.0994362697555007e-05
2024-04-19 19:10:09.706,0.0018067948241350196,-0.0425366199838823,-9.80044659243638,-0.000309173017031436,7.505065133119907e-05,0.00015024631249695576,-0.006540718509941203,-1.7514140685680057e-05,1.9667912909420585e-06
2024-04-19 19:10:09.763,0.0011541036790077574,-0.053560887252239106,-9.800414648073588,-0.0005399882895565853,7.366907951302282e-05,0.0001509409077141554,-0.009232621975276566,-5.3890247120862755e-05,2.706195870659016e-05
2024-04-19 19:10:09.819,0.001235510772382154,0.025733438411495547,-9.81000782893002,-0.0005324147763150711,7.494256158706181e-05,0.00015135354242105036,0.0003029470173722272,5.088474985970776e-05,1.6554800648224302e-05
2024-04-19 19:10:09.876,0.0008590080416426318,0.09314072461694994,-9.818951132924754,-0.00044009462344800137,7.69199402062905e-05,0.00015199031742024453,0.003692816506505198,7.852489874704517e-05,2.5782336143332795e-05
2024-04-19 19:10:09.933,0.000993338515512632,0.09058572965773315,-9.818963985175674,-0.0003112070251495757,7.883782354418215e-05,0.00015222486346049314,0.005155515140943585,7.59287249976221e-05,9.80208418439945e-06
2024-04-19 19:10:09.990,0.001405755303117835,0.027697512226518593,-9.8120411854106,-0.00032504277113397546,8.028999267633128e-05,0.00015305721231691067,-0.0005534236932200878,5.816020044014897e-05,3.326923092249391e-05
2024-04-19 19:10:10.047,0.00121616244449536,-0.017240265333061312,-9.800582192996805,-0.0004297048160528475,7.938533075250355e-05,0.0001541542697953821,-0.004186491058697925,-3.5564395975195606e-05,4.3530921807326866e-05
2024-04-19 19:10:10.103,0.0020637263489552016,-0.0009014482683803777,-9.799524024337787,-0.00053743649797383,7.704394256196031e-05,0.00015478589689649875,-0.00430928410176953,-9.300459715619154e-05,2.4873045761138643e-05
2024-04-19 19:10:10.160,0.0018777039958320406,0.048484171446000465,-9.810211136638403,-0.00048769267602431256,7.64605026903927e-05,0.00015544077147873012,0.001989747493682544,-2.3658423309687538e-05,2.633675442474333e-05
2024-04-19 19:10:10.217,0.0004614446461587384,0.07251887119562023,-9.818929433109796,-0.0004719980308006422,7.679627416825242e-05,0.0001559065794649155,0.0006277865267337523,1.3324457508679084e-05,1.868661256749133e-05
2024-04-19 19:10:10.273,0.0011334090148091924,0.047790058219299686,-9.816180634661379,-0.0004684925051593226,7.888842036316274e-05,0.0001567083809085667,0.00014023155058363152,8.364894631719835e-05,3.212201995856397e-05
2024-04-19 19:10:10.330,0.0009412342372752239,0.03690414130025431,-9.810607228110575,-0.0003671236688187289,7.806856613487532e-05,0.00015816552392753107,0.0040547440555846375,-3.34510790706271e-05,5.859334948137103e-05
2024-04-19 19:10:10.388,0.0019431353153065187,0.01847198312618198,-9.806192293655307,-0.0003389120460986753,7.55665685597006e-05,0.000158642901150815,0.0011284476914002143,-0.00010026488049056956,1.9149208137527046e-05
2024-04-19 19:10:10.446,0.0017834105682260693,-0.019011989122298366,-9.803061466704929,-0.0004458539472716891,7.581921574933138e-05,0.00015916916452536246,-0.004277676306689075,1.0775285583569514e-05,2.073212853501361e-05
2024-04-19 19:10:10.502,0.000749619560658055,-0.009469400907137248,-9.805655199952037,-0.0005659759398152801,7.725563528358545e-05,0.0001600656350929942,-0.004804873874514271,5.8201493519252057e-05,3.552751376218008e-05
2024-04-19 19:10:10.559,0.0010120168925808956,0.03144890448094194,-9.811543952311629,-0.0005258768925784478,7.865676354345021e-05,0.00016088935475131534,0.001603968477068933,5.5770993642244185e-05,3.310204086401893e-05
2024-04-19 19:10:10.615,0.0011471009254080866,0.0819397181847127,-9.798817150537229,-0.0004078298887815974,8.056616366252142e-05,0.00016137208468472745,0.004721891320670615,7.560829321021823e-05,1.9711488137508585e-05
2024-04-19 19:10:10.672,0.0012772145130827532,0.05862707834081399,-9.828451740321666,-0.00038335100937567947,8.271874199650545e-05,0.00016162028368595853,0.0009791683066443329,8.594128284813873e-05,1.0039796384664269e-05
2024-04-19 19:10:10.728,0.0011564437206569738,0.0038323846637081656,-9.831854420318665,-0.0004554055896679629,8.530777765255859e-05,0.0001623223455730084,-0.002882169081205328,0.00010401456240174992,2.7891455020704578e-05
2024-04-19 19:10:10.785,0.0013847251945518213,0.006830644400248663,-9.79797421051498,-0.000496715326478708,8.229475816314797e-05,0.00016324324583642794,-0.00165241222560849,-0.00012027076740536775,3.6635317219273626e-05
2024-04-19 19:10:10.869,0.002809111609437382,0.03661939234697352,-9.783228115230207,-0.00048696996909826644,7.989520585338235e-05,0.00016338183909364595,0.0003897982279009179,-9.604842962134182e-05,5.529036975928939e-06
2024-04-19 19:10:10.927,0.0011225584138405877,0.047250689733464225,-9.808172937280666,-0.0005062222653181311,7.937640018316434e-05,0.00016416750999919484,-0.0007700978179372684,-2.0642281736448254e-05,3.135486526146278e-05
2024-04-19 19:10:10.983,0.0004711713035758747,0.04639867290904995,-9.831627084488996,-0.00046101215073667055,8.028104359698357e-05,0.00016451115706478218,0.0018084095991702763,3.588245128253846e-05,1.3905978333261764e-05
2024-04-19 19:10:11.040,0.0010985186003989857,0.04221062568657752,-9.815971087092043,-0.000430796299430199,8.250789764839065e-05,0.00016533507887143005,0.0012086460807329252,8.886108150484168e-05,3.309219128692214e-05
2024-04-19 19:10:11.096,0.0007913833677965112,0.036276222731894944,-9.790723119557947,-0.0003431514053690623,8.111592237668633e-05,0.00016652384502344688,0.0035057829030617407,-5.62750410700883e-05,4.782061901759876e-05
2024-04-19 19:10:11.154,0.0023172585579081797,0.008732808731963628,-9.819406363377604,-0.00034071134043346695,7.856791108670953e-05,0.00016719800633596075,9.758351176932567e-05,-0.00010194588786682698,2.6939635971625783e-05
2024-04-19 19:10:11.210,0.0016695129605171634,-0.016445407473979722,-9.821609220558711,-0.00044295939640472023,7.858863454777752e-05,0.00016739910252648477,-0.0040899229789778425,1.5093609406775868e-06,7.723215351816883e-06
2024-04-19 19:10:11.265,0.0007396137267500424,-0.010744897953244117,-9.801443293808394,-0.0005492158620497231,7.840004951900844e-05,0.0001683772543618419,-0.004250263411750917,-6.853197444534761e-06,3.8788331447725984e-05
2024-04-19 19:10:11.322,0.0011136961571999854,0.038137725376414376,-9.796257503694731,-0.0005502477343422468,7.860129777928731e-05,0.0001691804662776895,-4.127607045741273e-05,8.039202441095651e-06,3.2129669565694295e-05
2024-04-19 19:10:11.379,0.001316135200128115,0.06666395867663726,-9.815409127077213,-0.0004595667379259355,8.001359391566344e-05,0.00016984622414436634,0.003627247678697018,5.586582455758449e-05,2.694112625474597e-05
2024-04-19 19:10:11.435,0.0011087816889567967,0.05214952341388497,-9.828361960829739,-0.0003922954531697959,8.178075182876743e-05,0.00016971651320716195,0.0026908640148242593,7.023123744364176e-05,-4.94556549952828e-06
2024-04-19 19:10:11.491,0.0011859731449146587,0.012440713726660913,-9.813693630976253,-0.0004374459670882061,8.372879346830545e-05,0.00017015266001979757,-0.0018060089199977104,7.822060534127863e-05,1.733240190525706e-05
2024-04-19 19:10:11.563,0.0012428758260212389,0.014652629156245071,-9.77366203585941,-0.0004634075113261934,8.630854885965357e-05,0.00017044221200897668,-0.0010384453024152322,0.00010336157485231563,1.1543034048320527e-05
2024-04-19 19:10:11.622,0.0011871107720974824,0.032537489733624296,-9.804925043088218,-0.0004694760081691644,8.661971950161251e-05,0.0001708725844239281,-0.00024273926725026771,1.2480125465540046e-05,1.7199807579776712e-05
2024-04-19 19:10:11.678,0.0015975472061379103,0.0334806420610284,-9.841594191341379,-0.00046885015942770795,8.810923180267991e-05,0.00017107859592011473,2.5043403417810392e-05,5.95723428031851e-05,8.270560659318046e-06
2024-04-19 19:10:11.733,0.0011661093182975557,0.03714743985257164,-9.824680070338134,-0.00042831155597642556,9.141498490190456e-05,0.00017165681935445688,0.0016215647707928332,0.00013194273461055554,2.332833297057228e-05
2024-04-19 19:10:11.791,0.0010087755616202275,0.023726284562979812,-9.794056602290937,-0.000415544987277959,9.57078297571154e-05,0.00017231044861491793,0.0005106897480418873,0.0001716152356948972,2.6263172248402427e-05
2024-04-19 19:10:11.862,0.0011176472904771688,0.007221008511705851,-9.795104992063386,-0.00047747047926439127,9.31979272167147e-05,0.00017327487208824353,-0.002477040773188903,-9.998757096693981e-05,3.829214391116083e-05
2024-04-19 19:10:11.920,0.003185773160681658,0.010727523876781374,-9.816939941920399,-0.0004890300529978965,8.955462904497093e-05,0.00017350170643486441,-0.0004624090534568341,-0.00014565620420740384,8.959049694394436e-06
2024-04-19 19:10:11.977,0.0017361741441436983,0.03223296654747679,-9.819346013677636,-0.00047978388426635584,8.835075672360894e-05,0.00017397628884878444,0.0003698367539897393,-4.822817914735571e-05,1.8993280883407644e-05
2024-04-19 19:10:12.035,0.0005259469225238245,0.034133318892983475,-9.803078603039488,-0.00042511523179011797,8.883125059571947e-05,0.0001748108496478256,0.002186746656522366,1.8825043235263782e-05,3.358364957364939e-05
2024-04-19 19:10:12.093,0.000401150117344024,0.037607081718313354,-9.784669988771743,-0.0004998818211534169,9.126894605803849e-05,0.00017533894298973755,-0.002990648725162426,9.802018933458161e-05,2.0907091668274532e-05
2024-04-19 19:10:12.148,0.0010219940148794052,0.03595753598542946,-9.821026492051454,-0.0005346760558093043,9.429685436801193e-05,0.00017557495320744717,-0.0013917492054289137,0.00012135536783744908,9.378276776980658e-06
2024-04-19 19:10:12.205,0.0012964539517215496,0.05061178631590344,-9.849150104162604,-0.0003771558509393238,9.387333092046024e-05,0.00017735521164509248,0.006300799068296363,-1.8074234199518225e-05,7.179775989842538e-05
2024-04-19 19:10:12.278,0.002108632283924442,0.03690586733921736,-9.813462756120972,-0.00028372557640936867,9.330100696151788e-05,0.00017750671712370093,0.003737206486445813,-2.355757352663547e-05,6.404390627162234e-06
2024-04-19 19:10:12.337,0.0014509286295166961,-0.017763778643988575,-9.776043427569592,-0.0003792010576416064,9.389804558803428e-05,0.00017790027864557158,-0.0038190166242775374,2.4553627447425248e-05,1.5395487319061685e-05
2024-04-19 19:10:12.393,0.001125216059551091,-0.04647622133491115,-9.791512787931458,-0.0005609616643199657,9.450005028208944e-05,0.00017858106021645693,-0.007270423225972856,2.535876383133035e-05,2.6562931867667403e-05
2024-04-19 19:10:12.449,0.0012778598904924776,0.007633218684861992,-9.82713363954442,-0.0005851313743837835,9.680018861068696e-05,0.00017917205073786854,-0.0009667744067747433,9.216438912953034e-05,2.3602195503419787e-05
2024-04-19 19:10:12.507,0.0008367639509750365,0.08362806059504525,-9.81419477562985,-0.0004404969780854783,9.95656506770129e-05,0.00017958608440293549,0.0057853946592153075,0.00010957439183929267,1.7169718051180907e-05
2024-04-19 19:10:12.578,0.0012545225929296176,0.07667679946792379,-9.818441885765141,-0.0003369301695989981,0.00010222520779150283,0.00017962179128061209,0.0041426915197380195,0.00010563771222066247,1.8763760628301778e-06
2024-04-19 19:10:12.635,0.0012893332906659073,0.008829798333747578,-9.820187836112847,-0.0003938004688804799,0.00010281591769175993,0.0001798710871153932,-0.0022748088572929303,2.403317117243408e-05,9.748767440294802e-06
2024-04-19 19:10:12.690,0.0018454741085606294,-0.019961511504816395,-9.801533259564827,-0.000497028248471772,9.976095654457377e-05,0.00018119488118286637,-0.004129138770280128,-0.00012148180641937355,5.246688750051996e-05
2024-04-19 19:10:12.762,0.0023888746798033105,0.0072770481164874945,-9.79283349641179,-0.0005319603189797229,9.87305176837735e-05,0.0001812589608304484,-0.0013972906952862006,-4.0965654516962626e-05,2.4020035534140163e-06
2024-04-19 19:10:12.821,0.0008255486653857101,0.04327491382356211,-9.808503929307964,-0.0004897788350543857,9.839065392415709e-05,0.0001819727108319233,0.001687254266426525,-1.3914440234428179e-05,2.8709779052486576e-05
2024-04-19 19:10:12.878,0.0007415797301944077,0.05089620193939186,-9.824105071807878,-0.00045559557731042623,9.817188927477153e-05,0.00018264169443664668,0.0013673262121741843,-9.011651726354735e-06,2.6889778259405373e-05
2024-04-19 19:10:12.934,0.0012686309980808935,0.02656781545058257,-9.819747041159216,-0.0004900880339074884,0.00010009767362822239,0.00018304585631798005,-0.001379685942350981,7.727550042157971e-05,1.6068907290023607e-05
2024-04-19 19:10:13.015,0.0009520001529224319,0.015062989417265672,-9.804651979322312,-0.0004588403045573235,9.790376278063857e-05,0.00018392722493728686,0.001249889774013268,-8.800144544353481e-05,3.533948525439001e-05
2024-04-19 19:10:13.072,0.0023765784484435855,0.026519630423571305,-9.791382030248192,-0.0003733299776807292,9.637089074892704e-05,0.0001842065445569578,0.0034204009461870134,-6.194826499069109e-05,1.1484555699947193e-05
2024-04-19 19:10:13.128,0.001144891328030276,0.020618192523430036,-9.799272939783595,-0.0003559030714069996,9.548396664089962e-05,0.00018516263567758598,0.0006970660943055786,-3.5619001327053036e-05,3.8298149159503405e-05
2024-04-19 19:10:13.185,0.0010342007604912393,-0.014244157460882999,-9.835875312211325,-0.0004894100602982874,9.558345679147683e-05,0.00018636021179092548,-0.005340283766981287,4.945265876827957e-06,4.7395626039186775e-05
2024-04-19 19:10:13.242,0.000855878879795074,-0.004852306980495196,-9.822927973261729,-0.0005985275132952729,9.812806456677848e-05,0.00018649965168726575,-0.004364680255396332,0.00010259463172359718,5.221855743688061e-06
2024-04-19 19:10:13.299,0.0008573441666395031,0.04470174632433191,-9.795001149601248,-0.000523615638464227,0.00010115999077302933,0.00018732042001509298,0.002996494684525616,0.00012070085553656529,3.3188000399739515e-05
2024-04-19 19:10:13.355,0.0013140646332197219,0.07054385852454065,-9.801174607258378,-0.00040967020365737503,0.00010165877761984408,0.0001878084284610105,0.004557819537825863,1.9089540495471475e-05,1.998927800820597e-05
2024-04-19 19:10:13.431,0.001951679142235215,0.030146029371875337,-9.822020120059117,-0.0003830604570562957,0.00010367159246410652,0.00018838806231766999,0.0010644026353663636,8.030376452736014e-05,2.3324326232563708e-05
2024-04-19 19:10:13.502,0.0010706265246313708,0.0024649494401005364,-9.797912184434457,-0.0004363544549275477,0.00010071472088309154,0.00018996500569790293,-0.0021317886805120004,-0.00011790067312295128,6.280530087009229e-05
2024-04-19 19:10:13.559,0.002595366779095971,0.0015894739290081938,-9.805313311451135,-0.0005010701866752567,0.00010078305361739399,0.0001902776623830884,-0.002588630237348847,3.2189307447743558e-06,1.2247184879049119e-05
2024-04-19 19:10:13.615,0.0005629599274698018,0.027557374742940427,-9.822060632589189,-0.00047875942758465316,0.00010080857876784078,0.00019086316077434183,0.0008924282812144565,8.399421986808952e-07,2.3510284562791466e-05
2024-04-19 19:10:13.671,0.0012014195929232875,0.0373777811528114,-9.818200766362027,-0.0004785955148017562,0.00010123032966755514,0.00019108437899747306,6.558834395527478e-06,1.686454733144937e-05,8.857462629857578e-06
2024-04-19 19:10:13.742,0.0012450819303711262,0.030450628227978442,-9.8075608721137,-0.00045853482996157025,0.00010123643513184136,0.0001919063748401467,0.0008024241780901748,7.577485464840236e-08,3.2961103892747675e-05
2024-04-19 19:10:13.801,0.0013365939073061962,0.01762183772345192,-9.806567150973786,-0.0004097856873993132,9.916607067701554e-05,0.00019228742085507849,0.0019499484393963107,-8.319510266864354e-05,1.5405165018265443e-05
2024-04-19 19:10:13.858,0.0018202835507850174,0.0012160808514558028,-9.808712452422515,-0.009428993276303813,0.0001000569216285924,0.000211472181109754,-0.3607739546758643,9.826071990141066e-05,0.0007328863022855262
2024-04-19 19:10:13.915,-0.0030606680663001233,-0.47963341289835143,-9.717598934101364,-0.0057776166030722815,0.00010057091504881734,0.00039351170665368536,0.14605863299316302,-5.245569322060531e-05,0.007296070644565734
2024-04-19 19:10:13.987,-0.04614584639973993,3.216569349222375,-9.840706454705419,-0.00029526278905333414,0.00010401503281905382,0.0005856808379863985,0.21929467395651966,4.9254304213094785e-05,0.00770907221525193
2024-04-19 19:10:14.047,0.017511281735542818,1.9656808804432162,-9.865398329556626,-0.0015882441299921513,0.00011375553270681126,0.0006237993911451189,-0.051719217618492797,0.00041750081060288967,0.001520047433377986
2024-04-19 19:10:14.104,0.07241696468381309,0.06976422405990267,-9.777955805253473,-0.004415162195160926,0.00012074925384226587,0.0006233760910883697,-0.113077070313917,0.0003504321070426045,-2.8148491969001936e-05
2024-04-19 19:10:14.181,0.013473943439600388,0.430001446460305,-9.732004724133535,-0.0011494123461291085,0.0001318260736373986,0.0006261677452483067,0.13063079230634927,0.0003615197807798234,0.00012798832326373712
2024-04-19 19:10:14.252,-0.0017264406072521213,0.6094222598890445,-9.81361754192552,0.0006509460890731127,0.00012347149455753747,0.0006303640917968551,0.07201410485980853,-0.00037915203000341436,0.00017763466529324432
2024-04-19 19:10:14.310,0.0011499128413078796,-0.4483498652783752,-9.874780752124433,-0.003810923911537848,0.00011646622102885454,0.0006413057595015317,-0.17847536279442214,-0.00016924140154754867,0.00041523928762892537
2024-04-19 19:10:14.382,-0.005552225329702727,-0.41271462764270045,-9.793730453140798,-0.005750984929573535,0.00011492940888980318,0.0006547309405354311,-0.0776034264012734,-1.4732655621951711e-05,0.0005279414634990161
2024-04-19 19:10:14.440,-0.004712586795803751,1.0310442715806347,-9.73555604320638,-0.00428036218000685,0.00012031911770868728,0.0006524449995949722,0.05882579446217568,0.00017743901368055668,-8.388978935829156e-05
2024-04-19 19:10:14.497,0.001661283034301191,1.548388227035478,-9.792099241728838,-0.002219464778251318,0.00012672822896483228,0.0006386267913853821,0.08243656579331268,0.0002037935535663,-0.000542303358175577
2024-04-19 19:10:14.555,-0.00035188975181009446,0.7023866303994152,-9.88524006293412,-0.0019539967684755652,0.00013361843939526568,0.0006354817470073493,0.010618934176692744,0.0002690697890012329,-0.00012392965828858393
2024-04-19 19:10:14.612,-0.004660479027380591,-0.19238776835913193,-9.84353814085904,-0.0028159956861527327,0.00013700415834974725,0.0006376750678699018,-0.03447997470341254,0.00015710743683150074,8.357788128057054e-05
2024-04-19 19:10:14.668,-0.0007487512717918558,-0.31845567806974096,-9.74367177400062,-0.000765975586439998,0.00014117607897961228,0.0006399355660987212,0.08200102592715411,0.00011452045241267776,0.00010179577218186828
2024-04-19 19:10:14.725,0.0003117900342586629,-0.5332409733018935,-9.774505814071933,-0.0006195381333897197,0.00013779132971291226,0.0006445662054238144,0.005857386055617644,-0.00013925352980597808,0.00018596657293343472
2024-04-19 19:10:14.781,0.0015012327733980961,-1.0358284201219219,-9.842139201286157,-0.0036614650805269753,0.000132195585297491,0.0006518490585043266,-0.12167756062922191,-0.00014637989575329242,0.0002741332570085042
2024-04-19 19:10:14.837,-0.0011537169334572234,-0.6545536549461666,-9.829625392974453,-0.004006333775128683,0.00012791787268937214,0.0006633738147989363,-0.01379501781325618,-0.00016395423750836872,0.0004585150887825374
2024-04-19 19:10:14.892,-0.0010177637306908827,0.2826885418807011,-9.790977836270008,-0.0033675508565283088,0.0001265567913488317,0.0006740572651403512,0.02555139390326667,-7.284205411883397e-05,0.00043036914761372116
2024-04-19 19:10:14.948,-0.0014124215342791425,0.41613333511836814,-9.79025662010248,-0.004863895649378394,0.00012955948939799615,0.0006735924638819445,-0.0598542067608988,0.00016058400379518128,-2.5356060820731954e-05
2024-04-19 19:10:15.004,0.0026417605755618256,0.40931716014149117,-9.8179148503452,-0.004595164502246912,0.0001295864868315605,0.0006605122891871307,0.010749433775373136,-3.762770686967487e-06,-0.0005218362442128802
2024-04-19 19:10:15.060,0.003335080291620913,0.6050206084213676,-9.836089143864303,-0.0020866171501792465,0.0001356185884800969,0.0006493382110444077,0.10034267805695803,0.00017592786683412638,-0.0004335109004697445
2024-04-19 19:10:15.132,-0.0024872906587580543,0.04013886018927967,-9.820631145637307,-0.001701269303204285,0.00014005348239096545,0.0006470996321194688,0.015414065997073232,0.00016753578946326713,-8.71659167872958e-05
2024-04-19 19:10:15.190,-0.0023388188791227753,-0.8378085456991234,-9.791433346119616,-0.0033300780350757515,0.00014145083219736521,0.000646802084355123,-0.06515251047419095,9.813095466442162e-05,-2.0665742484527938e-05
2024-04-19 19:10:15.263,0.0010853707063393815,-0.8488748576095162,-9.785288852593181,-0.002851367182775375,0.00014270741142899504,0.0006489446810033322,0.01914854163245446,3.762625082083292e-05,8.852307307865559e-05
2024-04-19 19:10:15.321,0.0014054648218925696,-0.5517208850387111,-9.819203707594992,-0.0004306771037636077,0.00014492945641002064,0.0006533072132111598,0.09682776809883097,2.5981585809323025e-05,0.00018840661718383294
2024-04-19 19:10:15.391,0.0011059179357694499,-1.002365442811849,-9.84997860868563,-0.0007253811113650143,0.00014424839870028124,0.0006552227157857275,-0.011788188561907012,-1.9595087723136817e-05,7.489860465407281e-05
2024-04-19 19:10:15.451,0.001847941851786422,-1.649937163377837,-9.813200681960923,-0.0028490984795996373,0.00014246206606043774,0.0006595448785376736,-0.08494889901483046,-1.6237654098414992e-05,0.00016064630596998906
2024-04-19 19:10:15.522,0.002032355774974578,-1.30143320060047,-9.767268692952857,-0.002580944644789937,0.00014291441397108054,0.0006618988038914346,0.010726188825641674,1.0772723795104473e-05,9.571418213525276e-05
2024-04-19 19:10:15.580,0.0013809432656504386,-0.6299838590163954,-9.797599725725515,-0.002204191119988773,0.00014243840706732578,0.0006642697806010369,0.015070154518871105,-2.922851856486598e-05,9.693052217839943e-05
2024-04-19 19:10:15.637,0.001433550437590622,-0.5986587467629266,-9.846209267008422,-0.0032600799495318576,0.0001419171535706321,0.0006693483230624443,-0.04223574614320526,6.566230000950838e-06,0.00019716301921648966
2024-04-19 19:10:15.695,0.0006023975698580119,-0.5571370999896972,-9.83632607231603,-0.0039013214899377845,0.00014059344716011438,0.0006858336359721492,-0.025649950315837586,-3.833647753199819e-05,0.0006556334369059212
2024-04-19 19:10:15.767,-0.0025967286222916704,-0.19635117436860697,-9.780179896588274,-0.003643374958511717,0.00014123617703841264,0.000704657008600376,0.010317841592977193,1.5884425353531167e-05,0.0007544495088734986
2024-04-19 19:10:15.826,0.00245974051407985,0.004179664921795102,-9.799506515474215,-0.0030558035153764223,0.00014245097002261236,0.0007151939877790475,0.023502957115218895,3.0732913777191836e-05,0.00042489950933244066
2024-04-19 19:10:15.897,0.004562149705858514,-0.22215850876636434,-9.843562075848071,-0.0032874831784104183,0.00014362653769021678,0.0007151450636829895,-0.009267196792131387,5.3661198193883736e-05,-3.0999245498732492e-06
2024-04-19 19:10:15.955,0.004965767428227775,-0.4585906528978391,-9.829643460631543,-0.003956370349054445,0.00014417100078812771,0.0007138975144749517,-0.026755632798510585,4.112626617090118e-05,-5.357611043576608e-05
2024-04-19 19:10:16.012,0.0014811229995301187,-0.454686866082223,-9.789238498312269,-0.004387732883202508,0.00014403236345479262,0.0007096730871268602,-0.017254626177766002,7.525344196654304e-06,-0.00017143073001370568
2024-04-19 19:10:16.067,0.002584894357375085,-0.1708456466783509,-9.78970117934536,-0.0038815255462910578,0.0001453582774687026,0.0007033123359808857,0.02024853674926906,3.964341935673333e-05,-0.00025135804625848606
2024-04-19 19:10:16.131,0.002162696557257127,-0.12012064119227911,-9.830414781951202,-0.002578698236179933,0.00014653709567245701,0.0007028070187603586,0.05211339065018618,1.0538177292831935e-05,-1.2586572841457172e-05
2024-04-19 19:10:16.217,-8.394128655368172e-05,-0.5886326169813858,-9.846093969279163,-0.0038670152972453474,0.00014557640157621747,0.0007027615892396501,-0.05153296708226416,-2.1690240109419887e-06,-9.353799977424077e-06
2024-04-19 19:10:16.276,0.0019013044613587005,-0.8248024373874774,-9.796770103615453,-0.003195539310779348,0.00014684767829582852,0.0007025755320481227,0.026859237326626845,3.198785472650186e-05,-3.423679444388548e-06
2024-04-19 19:10:16.334,0.001872753602194567,-0.6504218658231988,-9.793089423843137,0.0005771480802298819,0.0001499064897991205,0.0007025582966586465,0.1509077615901488,1.6382921873810192e-05,2.166153810775297e-05
2024-04-19 19:10:16.392,0.0021821211349023592,-1.4625187501418813,-9.838596636645097,0.0022761822030460312,0.00015144823016725105,0.0007022634468933515,0.06796146981020292,1.392780199090954e-05,-1.5972750449969108e-06
2024-04-19 19:10:16.450,0.0021917998633720743,-2.906601365435245,-9.832438080148453,0.0004952773632987806,0.00015059381808645963,0.0007023692853641356,-0.07123627766114987,1.5856508603647837e-05,-6.518373117164995e-06
2024-04-19 19:10:16.508,0.002229615196084138,-3.077865909346229,-9.763447383478455,-0.0020442010944694716,0.00014914311743586135,0.0007025571053765081,-0.10157921174911178,1.335314235899774e-05,-7.66651490647779e-06
2024-04-19 19:10:16.565,0.0023045841359320527,-2.020231666479432,-9.73767647834355,-0.0022232049817508368,0.00014934377017860923,0.000702557495726769,-0.007160164318806946,1.305893910354734e-05,-1.0227950729815148e-06
2024-04-19 19:10:16.622,0.0023482281015877885,-0.9735305913257783,-9.822271670274572,-0.0002216585278804695,0.0001511203212087631,0.0007023725556194609,0.0800619617036103,1.482489386698971e-05,4.618721978529744e-06
2024-04-19 19:10:16.680,0.002367260573348343,-1.0271151411506607,-9.902809741866498,0.001233931770323389,0.00015242604690090844,0.0007022042039074219,0.058223647200026825,1.1343332679726506e-05,2.0804728706452535e-06
2024-04-19 19:10:16.752,0.0024522587154326547,-1.7778441163990182,-9.847931934292868,0.0005162582242373732,0.0001522439545604997,0.0007022424851585574,-0.02870695138740509,1.2874553635002493e-05,-2.84385092182619e-06
2024-04-19 19:10:16.809,0.0024520772030361695,-2.1221726823311235,-9.735788128780952,-0.0011632555147114444,0.00015135256133011978,0.0007023774639325918,-0.06718056948608836,1.153545365369062e-05,-4.775648329415955e-06
2024-04-19 19:10:16.865,0.002522894731777656,-1.5794873535131522,-9.734288978903798,-0.001663822724992592,0.00015129046044158573,0.0007024491392757148,-0.020022705636172637,1.1580472655051309e-05,-1.4068644424933158e-07
2024-04-19 19:10:16.937,0.00254901862434058,-0.8473389204924135,-9.839379506364136,-0.0005841292720994782,0.00015236943002814337,0.0007023859989497336,0.043187787033807684,1.2822743034025784e-05,4.032155212512151e-06
