Timestamp,Linear_Acceleration_X,Linear_Acceleration_Y,Linear_Acceleration_Z,Orientation_X,Orientation_Y,Orientation_Z,Angular_Velocity_X,Angular_Velocity_Y,Angular_Velocity_Z
2024-03-06 02:10:12.295,3.274022497480427e-05,-0.0067040537941352295,-9.810475352840271,0.0004164278642437031,8.430519575047234e-06,1.6124730483131215e-07,-0.0,0.0,-0.0
2024-03-06 02:10:12.349,3.285279092601363e-05,-0.006704956785906995,-9.810477588014344,0.0004164278642437031,8.430519575047234e-06,1.6124730483131215e-07,-0.0,0.0,-0.0
2024-03-06 02:10:12.406,3.256170716053694e-05,-0.00670792628596724,-9.81047833307237,0.0004164278642437031,8.430519575047234e-06,1.6124730483131215e-07,-0.0,0.0,-0.0
2024-03-06 02:10:12.460,3.0422045658714603e-05,-0.006714456184767405,-9.810475352840271,0.00041532892851515476,8.479748305672785e-06,1.5988088386530914e-07,-4.3957432153713686e-05,1.9691332889951603e-06,-5.584526546613011e-08
2024-03-06 02:10:12.511,2.847177505085712e-05,-0.006716045435733798,-9.810466505276233,0.00041532892851515476,8.479748305672785e-06,1.5988088386530914e-07,-0.0,0.0,-0.0
2024-03-06 02:10:12.565,3.2742044319392766e-05,-0.0065455110035756965,-9.810492302910324,0.00041532892851515476,8.479748305672785e-06,1.5988088386530914e-07,-0.0,0.0,-0.0
2024-03-06 02:10:12.616,3.138300421465282e-05,-0.006702675545929625,-9.810475818501537,0.00041532892851515476,8.479748305672785e-06,1.5988088386530914e-07,-0.0,0.0,-0.0
2024-03-06 02:10:12.664,3.180559895376691e-05,-0.006742802723114319,-9.810475259708019,0.00041532892851515476,8.479748305672785e-06,1.5988088386530914e-07,-0.0,0.0,-0.0
2024-03-06 02:10:12.717,3.216153377402048e-05,-0.006752467922850987,-9.810479171262648,0.00041532892851515476,8.479748305672785e-06,1.5988088386530914e-07,-0.0,0.0,-0.0
2024-03-06 02:10:12.773,3.252110586236564e-05,-0.006757050093365084,-9.810476842956321,0.00041532892851515476,8.479748305672785e-06,1.5988088386530914e-07,-0.0,0.0,-0.0
2024-03-06 02:10:12.828,3.27773417715649e-05,-0.006759774939362172,-9.810475445972525,0.00041532892851515476,8.479748305672785e-06,1.5988088386530914e-07,-0.0,0.0,-0.0
2024-03-06 02:10:12.878,3.311656391692447e-05,-0.006754863077034343,-9.810478146807862,0.0004142374185439686,8.559802950094439e-06,1.5872133492842697e-07,-4.366040168120653e-05,3.2021731164065516e-06,-4.8078650740916756e-08
2024-03-06 02:10:12.928,3.159368954048992e-05,-0.006692704892411875,-9.810397587408984,0.0004142374185439686,8.559802950094439e-06,1.5872133492842697e-07,-0.0,0.0,-0.0
2024-03-06 02:10:12.982,3.620581209401068e-05,-0.006626442704092057,-9.8105589856035,0.0004142374185439686,8.559802950094439e-06,1.5872133492842697e-07,-0.0,0.0,-0.0
2024-03-06 02:10:13.034,3.374984273842594e-05,-0.006755982664959048,-9.810476842956321,0.0004142374185439686,8.559802950094439e-06,1.5872133492842697e-07,-0.0,0.0,-0.0
2024-03-06 02:10:13.084,3.384056500825439e-05,-0.006781304587869407,-9.810476656691813,0.0004142374185439686,8.559802950094439e-06,1.5872133492842697e-07,-0.0,0.0,-0.0
2024-03-06 02:10:13.137,3.405029980559188e-05,-0.006783061867973972,-9.810475259708019,0.0004142374185439686,8.559802950094439e-06,1.5872133492842697e-07,-0.0,0.0,-0.0
2024-03-06 02:10:13.189,3.411596141195608e-05,-0.006784689499614956,-9.81047898499814,0.0004142374185439686,8.559802950094439e-06,1.5872133492842697e-07,-0.0,0.0,-0.0
2024-03-06 02:10:13.245,3.436480945341117e-05,-0.0067801666736273325,-9.810476842956321,0.00041314960923556426,8.670936333587133e-06,1.579603910868537e-07,-4.351237507238573e-05,4.4453291377974965e-06,-3.264679979947074e-08
2024-03-06 02:10:13.316,3.164656578580312e-05,-0.006748403300272354,-9.810396562954201,0.00041314960923556426,8.670936333587133e-06,1.579603910868537e-07,-0.0,0.0,-0.0
2024-03-06 02:10:13.374,3.768336468183312e-05,-0.006622142658821051,-9.810560941380814,0.004712246562587494,9.035008070413767e-06,8.799767479370453e-07,0.17196457498328555,1.4681869150577107e-05,3.0302953810138427e-05
2024-03-06 02:10:13.427,5.6099641199070753e-05,0.1577578554463378,-9.849339535165285,0.0020539128038518937,1.0460791071660948e-05,-9.4883805966191e-08,-0.1063339897041769,5.704398372323073e-05,-4.007227300205839e-05
2024-03-06 02:10:13.480,6.50958557447407e-05,-1.126339410782794,-9.76519156431335,-0.0013892129733810506,1.2479938652166507e-05,-1.3240963386419042e-06,-0.13772510610900357,8.082554472641022e-05,-5.04969993552146e-05
2024-03-06 02:10:13.533,0.00028086774451090867,-0.38696611854091445,-9.75220026694032,0.0025328399537123828,1.3111617605961138e-05,1.4864707417179705e-06,0.1568822417613357,2.576834916642745e-05,0.0001143152511785204
2024-03-06 02:10:13.587,-0.00016866000203608568,0.2482747657578317,-9.847598055165726,0.007842403869782598,1.2759711103645082e-05,5.25257129076393e-06,0.21238566200207848,-1.3180871789574754e-05,0.00015353765794235482
2024-03-06 02:10:13.646,-0.00012410798412346106,-1.5730408568283696,-9.909855196808824,0.005297638971745536,1.1357635384088337e-05,1.0140718625926127e-05,-0.10179282287794078,-5.4516974799054184e-05,0.00019451926899480341
2024-03-06 02:10:13.698,0.0006963748613839191,-2.846725947285981,-9.751040025331973,-0.001602973926852645,1.2335718717269016e-05,1.0460596048579991e-05,-0.2760255343269814,4.191767081031331e-05,9.736987596286544e-06
2024-03-06 02:10:13.749,0.0007513687206806206,-0.9914913005744513,-9.604530232184528,-0.0018261410321157889,1.361415890701333e-05,1.102678471973415e-05,-0.008926697123699232,5.1189756489536304e-05,2.2630957494809942e-05
2024-03-06 02:10:13.802,0.0005423762543045473,1.4337070827660512,-9.762917554090922,0.0031787978957132355,1.5138832370626514e-05,1.0307560689338452e-05,0.2001978129238518,5.870316381563175e-05,-2.6224661460627043e-05
2024-03-06 02:10:13.855,0.00018896875912450517,1.064546629281828,-10.015972321094397,0.005077332483110974,1.5785680051305642e-05,1.0582517929806513e-05,0.07594204204745472,2.515358143808041e-05,1.2021147699021791e-05
2024-03-06 02:10:13.912,0.00037801377653396095,-0.8058860718969352,-9.943942719007769,0.00324485836500132,1.557813510370579e-05,1.4065870908450706e-05,-0.07329961180644105,-7.076636882299669e-06,0.00013820143658161742
2024-03-06 02:10:13.963,-0.00043747908389658944,-1.3073628409295297,-9.6568112331467,0.002888031652968666,1.4514609510130674e-05,1.9189969452765574e-05,-0.014273139228525031,-4.174874308069208e-05,0.0002048630547986136
2024-03-06 02:10:14.015,0.0003965585403103676,-0.6896721453654772,-9.62350462488948,0.002154763922302946,1.4765532807367421e-05,2.1681189069203976e-05,-0.029330804384280342,1.0813723272101502e-05,9.920019519167235e-05
2024-03-06 02:10:14.071,0.0007576727692196958,-0.16919784608381785,-9.843294600017346,0.0010258331996528286,1.6680034770376888e-05,2.1274434613040672e-05,-0.04515728645572123,7.754210364804238e-05,-1.701595107738417e-05
2024-03-06 02:10:14.128,0.0004794415303528199,0.30612584160997725,-9.96852069311351,-0.00026775526242125026,1.8071715793566438e-05,2.0781770122777883e-05,-0.05174354424614779,5.677411893848659e-05,-2.055375066337983e-05
2024-03-06 02:10:14.179,0.0005796185755389156,0.946586016075791,-9.824624842912081,0.001536503543122625,1.821785319427666e-05,2.0359678807651913e-05,0.07217037693369625,4.322904384236287e-06,-1.5584718293172495e-05
2024-03-06 02:10:14.230,0.0005324762585741699,1.0539636446608733,-9.723005820183738,0.004954479657577807,1.7734983057199378e-05,2.3867429372742968e-05,0.136719828265026,-2.1386316997759214e-05,0.0001429132288028741
2024-03-06 02:10:14.283,-0.0002845093639660108,0.02069493832025504,-9.808558970469509,0.006068453578759121,1.6526149152870624e-05,3.016465971950579e-05,0.044559630626601905,-4.7882152455809384e-05,0.0002529752992133643
2024-03-06 02:10:14.342,-0.00020219387301097154,-1.3215651224368985,-9.877311434836235,0.001517295989024954,1.57399133326199e-05,3.316845654257313e-05,-0.1820477729096788,-2.5773406485300042e-05,0.00011719507173513769
2024-03-06 02:10:14.393,0.0015284952964301388,-0.9332244597892767,-9.752814753545865,-0.0013294893027922788,1.7164412889422698e-05,3.315170294398054e-05,-0.11387144864413645,6.0762681572196426e-05,-2.3763109567254947e-06
2024-03-06 02:10:14.445,0.000575317916359015,0.9556201123757049,-9.700525650077678,0.00022830443704275035,1.7541040308608092e-05,3.3672298215186566e-05,0.06231176542913951,1.3005187918373714e-05,2.1891995728807747e-05
2024-03-06 02:10:14.498,0.0006470002466231191,1.8588769880098044,-9.834529737419434,0.002171196100963044,1.797654706314705e-05,3.17863604547872e-05,0.07771573659301612,1.46438694692839e-05,-7.410372368957534e-05
2024-03-06 02:10:14.554,0.0002892416238361379,1.1440161974450331,-9.945901476553665,0.0029855670708383497,1.8743770391226303e-05,3.1408244924234494e-05,0.03257494921201856,2.9610194452486173e-05,-1.4627082984222456e-05
2024-03-06 02:10:14.606,0.00014659074182140567,0.23067908546455823,-9.852141139601173,0.0026802348869112693,1.7757301984279928e-05,3.360344253687871e-05,-0.012213339198174392,-3.884022906585805e-05,8.768345498618938e-05
2024-03-06 02:10:14.659,0.00023013966953720766,-0.04300135565635828,-9.701414783697432,0.003960251907547558,1.6834885595478212e-05,3.8694485799401445e-05,0.05120096186114337,-3.780622144260011e-05,0.00020470334992124946
2024-03-06 02:10:14.714,-0.00047123087689709676,-0.19272656894376966,-9.747489730713912,0.0027704055268626885,1.7520542166310854e-05,4.0599825530042514e-05,-0.04759412776915885,2.9477182905714557e-05,7.533206876723597e-05
2024-03-06 02:10:14.766,0.0010473989178086767,-0.25090664248332495,-9.846650155094304,-0.0010285304289928518,1.8368128202817456e-05,4.007651799872003e-05,-0.15195758532891093,4.010216980409634e-05,-2.3541721632136402e-05
2024-03-06 02:10:14.816,0.0008917093171534111,0.7229156128655223,-9.83696766040721,-0.0002967044754504909,1.967326926782797e-05,3.923575844102047e-05,0.029273047945369345,5.104249404637963e-05,-3.3077118937229425e-05
2024-03-06 02:10:14.873,0.00035552358798043876,1.8167274257604975,-9.804579429297196,0.004204854535986607,2.0314510844546144e-05,3.929975511158319e-05,0.18006285704983668,1.8618319105329854e-05,6.039947563743506e-06
2024-03-06 02:10:14.927,0.00044215199924024453,1.008484697497711,-9.841246714905292,0.00612709709938871,1.985540018558266e-05,4.258813619863407e-05,0.07689073700642693,-2.056879144824683e-05,0.0001332286725051859
2024-03-06 02:10:14.986,-0.0004846558309185037,-0.7319892874625944,-9.843652879794783,0.0041753241760452775,1.8479621658953306e-05,4.8184889531184055e-05,-0.07807197151797808,-5.077596844829303e-05,0.00022253717503531575
2024-03-06 02:10:15.042,0.00038230228685474265,-1.2159272567254582,-9.754188081749163,-7.902459687077189e-05,1.841990663609114e-05,5.056948947442756e-05,-0.17017443783468952,5.81060973818762e-06,9.225715009244814e-05
2024-03-06 02:10:15.094,0.0013597845516975318,0.18568561927418542,-9.688531985399191,-0.00014561042881653692,2.0152160735143094e-05,5.044808006995668e-05,-0.00266342968943665,6.942556752270813e-05,-4.89532279654546e-06
2024-03-06 02:10:15.149,0.00045600044239639184,1.6236962328585722,-9.817654731962465,0.0011124164923031823,2.067622896002071e-05,5.0779305915651836e-05,0.05032108675215614,1.8440622244953242e-05,1.4244204186266664e-05
2024-03-06 02:10:15.206,0.0007532245786374911,1.6733993446981845,-9.93146709491981,0.0011189320175996117,2.1871528689978282e-05,4.8849990631835425e-05,0.0002606252861307379,4.771238011700585e-05,-7.722065792944555e-05
2024-03-06 02:10:15.259,0.00017522913487262817,1.1875213723968807,-9.865510740186043,0.002188708736367603,2.2867964785614568e-05,4.816304362622845e-05,0.04279113182208149,3.7709417833579315e-05,-2.662345357312698e-05
2024-03-06 02:10:15.311,0.0003059517379342437,0.8277392320197999,-9.750482442533036,0.003215506910710996,2.2337508032011228e-05,4.967268254362251e-05,0.0410720762994725,-2.299863035517531e-05,6.140007667828452e-05
2024-03-06 02:10:15.364,0.0003104554716394645,0.3527558837756048,-9.748913909127367,0.004759252345207886,2.214745964108983e-05,5.293734952691589e-05,0.06175031107232759,-1.003998163560547e-05,0.0001320176725917404
2024-03-06 02:10:15.420,-0.00023854605619105383,-0.29214700693311413,-9.851441530116352,0.0033218526149321704,2.0823589284979737e-05,5.635521437436161e-05,-0.057496469047544,-4.9459991175687996e-05,0.0001356084283704419
2024-03-06 02:10:15.478,0.0009872017315677812,-0.46152324784762633,-9.833345281425295,-0.00018764661634793523,2.1255013354641905e-05,5.646030167014353e-05,-0.14038021252805613,2.5172989797890136e-05,1.2988837031750256e-06
2024-03-06 02:10:15.530,0.0009173746567203361,0.5617039862641569,-9.74326012944219,-0.0008637011417634229,2.1150633062181604e-05,5.6397863436909484e-05,-0.02704218540152759,-2.6455534811515e-06,-3.0740813137226625e-06
2024-03-06 02:10:15.583,0.0007421042101844702,1.8334127673841536,-9.768759740323995,0.0018720852100166008,2.166412398656828e-05,5.634399148793019e-05,0.10943150311245409,1.437139730989067e-05,1.412027174784663e-07
2024-03-06 02:10:15.639,0.00013866819637832316,1.7383497546838247,-9.891707725378598,0.005458575398625552,2.1466911529331925e-05,5.8823803355045257e-05,0.1434606453067237,-1.540732149117185e-05,0.000102400540173998
2024-03-06 02:10:15.692,-8.575951985339528e-05,0.2589741977092958,-9.918727347762236,0.003589447562861145,2.108233442360022e-05,6.19612397055108e-05,-0.0747658928040636,-1.0538781647365238e-05,0.00012393519947245647
2024-03-06 02:10:15.744,0.00044908302781740346,-0.6982063892218043,-9.743686395764344,-0.001069441525032525,2.2949791000534187e-05,6.153224014553594e-05,-0.18635587454828742,8.627668959815626e-05,-2.0969631502709593e-05
2024-03-06 02:10:15.798,0.0006181158160820993,0.5486674408042669,-9.646818421792482,-0.0014970526245354704,2.3510722032699916e-05,6.108157017956858e-05,-0.017104456350954332,2.3517348814817225e-05,-1.8383931232184162e-05
2024-03-06 02:10:15.853,0.001000425837904696,2.1460161107156224,-9.798364807184221,0.002836968994914667,2.474675088820899e-05,5.9937590498928264e-05,0.17336104313397294,3.87425094477472e-05,-4.177048934939541e-05
2024-03-06 02:10:15.907,5.001658653935354e-05,1.757231725269167,-9.990477459957496,0.004781547992379519,1.7460737794986284e-05,7.2010244335389876e-06,0.07778375483679532,-0.000306174707945748,-0.002106093304245349
2024-03-06 02:10:15.960,-0.01796206328158333,0.204734689494158,-9.962477434346127,0.009985580781635743,1.681430469121073e-05,-0.000339704353174988,0.20816742901551652,-0.00016587128797768992,-0.013871612003702736
2024-03-06 02:10:16.014,-0.12300347614315474,0.12530037479911083,-11.335643494391983,0.009620037031167622,9.911973497573024e-06,-0.00042000398831463695,-0.01462231697632636,-0.00031194927575101225,-0.0032093799556097598
2024-03-06 02:10:16.068,0.0868682225822285,-1.1307380090769021,-8.612281283269315,-0.002318415935652004,-5.528341152773407e-06,-0.00032060176274635404,-0.47754380964771476,-0.0008273522237607621,0.0039682512798508325
2024-03-06 02:10:16.120,0.08622891247958366,-0.43973592349651075,-6.316606353831548,-0.004026841427009028,-1.9486197098872833e-05,-0.00029762153685644675,-0.06833717029500395,-0.0005839218478393188,0.0009172242331864236
2024-03-06 02:10:16.178,-0.03183118084577782,3.0229602086628127,-10.93071870741746,0.0045053924933147835,6.275618492843527e-06,-0.00024311365590549101,0.3412900635797184,0.001141798115405086,0.002168109383926576
2024-03-06 02:10:16.230,0.0062463120957932895,2.707387390009354,-13.34194980520807,0.007347763310856773,4.607109167977261e-05,-0.00022382170602361205,0.11369644115707433,0.001625092453947116,0.0007604319903141599
2024-03-06 02:10:16.282,-0.012825132499956707,-0.3511505500332657,-10.018597998704298,0.0014882833649830303,4.90275808286277e-05,-0.0002190096841400612,-0.23438185040122733,6.61018522172217e-05,0.00018143084203568318
2024-03-06 02:10:16.333,0.007335762454110537,-0.6772352177286557,-7.035022174207372,-0.003378041342783696,1.717275465204718e-05,-3.616911907831782e-05,-0.19465310188050675,-0.0013414662352696214,0.007299485732431701
2024-03-06 02:10:16.390,-0.042727664702934307,1.353418879188259,-9.152493866368022,-0.000991795314976391,-1.6933025046919513e-05,-2.351313258611516e-05,0.09545014951791385,-0.0013612799268721803,0.0005065246205461989
2024-03-06 02:10:16.446,0.08057201374642287,2.6304239205535316,-11.293871350598112,0.0025258886055263895,-1.5827613906790237e-05,-1.5768920570906006e-05,0.14070747454732882,4.829697790917394e-05,0.00030725905073272644
2024-03-06 02:10:16.497,-0.01273997894228827,1.7249010266084668,-10.718531304369591,0.0015465506281130965,6.550045691678079e-06,-1.790984706111671e-05,-0.039173615418151744,0.0008943558015944292,-8.64006070524152e-05
2024-03-06 02:10:16.549,-0.010181687161567943,0.5643388948810439,-9.094321342361729,0.00048277902595473133,3.2918984496589935e-05,-1.802997869254437e-05,-0.04255090668307236,0.001053993043293328,-5.593227074483873e-06
2024-03-06 02:10:16.602,-0.0021485921059207166,0.746471882499693,-8.86795724298263,0.0003433749283560099,3.8661748952735416e-05,-1.676113888106454e-05,-0.005576170479115066,0.00022962740393133973,5.0491178334209326e-05
2024-03-06 02:10:16.681,0.005726946273776737,1.119400984989991,-10.07295007470953,0.0003037639183269235,2.123025451354838e-05,-1.3687179576015478e-05,-0.001584431411842815,-0.0006972489697733179,0.00012310891964379642
2024-03-06 02:10:16.734,0.006572945756474365,1.15409505426991,-10.635215377066299,0.00048206004535229535,-2.5350138224272864e-06,-1.2181524505754397e-05,0.007131858815927233,-0.000950483888989932,6.083580282410794e-05
2024-03-06 02:10:16.789,0.0004843473559098526,1.08204243687525,-9.862188712720178,0.0005708970219304044,-9.536693291886e-06,-1.221759722441884e-05,0.003553482956346646,-0.00028002467562821887,-1.2920537431869481e-06
2024-03-06 02:10:16.844,-0.005620762459749404,0.9408465081516915,-9.183226508698842,0.00036984683959419474,1.1130162530062894e-06,-1.2945986529778247e-05,-0.008042013368291221,0.00042587934357811403,-2.9216399979415602e-05
2024-03-06 02:10:16.915,-0.00606245030354208,0.8659791313904005,-9.581331826143037,0.00038744883445852754,2.2937106318210604e-05,-1.3882090269189896e-05,0.0007040694140772855,0.000872958144728976,-3.778159537649594e-05
2024-03-06 02:10:16.971,-0.00302029632884391,0.8456423884464784,-10.234589016098493,0.0004735589339996691,3.4242674232934e-05,-1.3382144035533819e-05,0.0034443973447014806,0.00045227999251580835,1.9862672848281147e-05
2024-03-06 02:10:17.026,0.00326569779907886,0.789048584186027,-10.118497613777054,0.0004410781324203271,2.5529492884554675e-05,-1.150363007288759e-05,-0.0012992294569769314,-0.00034851148273954064,7.524979728024154e-05
2024-03-06 02:10:17.089,0.00588245880434849,0.7242631114205171,-9.572215575554413,0.000402443126304927,5.612297841755072e-06,-9.081549598299818e-06,-0.0015453917611655734,-0.000796666540102953,9.716438650069039e-05
2024-03-06 02:10:17.145,0.002898677367989624,0.6819552476241089,-9.499334651542766,0.000388979975097348,-5.57784323784247e-06,-8.32132763129919e-06,-0.0005385218541053006,-0.0004475986726650415,3.057996556236201e-05
2024-03-06 02:10:17.200,-0.0029283229510576915,0.6395282269307044,-9.905125661602794,0.0003326870713406223,-2.3108708884948515e-06,-8.133357888472603e-06,-0.0022517173672205537,0.00013066265469969133,7.487879552607831e-06
2024-03-06 02:10:17.254,-0.0048672815774347036,0.6007310125163927,-10.082307630965776,0.00034407900843561826,1.4581412833471948e-05,-9.096649227261e-06,0.0004556725815712522,0.0006756817567703032,-3.8765196745464713e-05
2024-03-06 02:10:17.311,-0.003538796709849412,0.580886112642296,-9.81766711855212,0.00044442714148727237,2.9312261762260884e-05,-8.881289609714694e-06,0.004013920030394813,0.0005892742697644806,8.41102289323061e-06
2024-03-06 02:10:17.364,0.0010444574642899654,0.5290939395932565,-9.60233836460928,0.00042401632986013567,2.7869686653853616e-05,-7.796212475983288e-06,-0.0008164332397452847,-5.769185644118431e-05,4.34036199784123e-05
2024-03-06 02:10:17.415,0.0048796435442084165,0.4637606570946113,-9.743830564492049,0.00033102559191901254,1.369173875730221e-05,-5.900132162048403e-06,-0.0037196264039444254,-0.0005671218073837178,7.592728240435189e-05
2024-03-06 02:10:17.471,0.003997653343482445,0.4439295000486034,-9.952638384341673,0.000312324635327889,1.1598717115361018e-07,-4.894246448537059e-06,-0.0007480351022189953,-0.0005430218870803738,4.039478770331533e-05
2024-03-06 02:10:17.525,-0.00048022733942216963,0.4397138540629236,-9.90563164913355,0.0003555119236724938,5.882203924741271e-07,-4.8819945741427615e-06,0.0017274915374738203,1.8897956731126362e-05,4.835567416940927e-07
2024-03-06 02:10:17.581,-0.004130800153397416,0.4101443579025918,-9.728562369796744,0.00030729921882193776,1.0749881630636131e-05,-4.965034707339643e-06,-0.0019285102467442477,0.00040645599432355867,-3.4476437067567157e-06
2024-03-06 02:10:17.635,-0.0027790708473874512,0.37625992222292715,-9.710446749597057,0.00030702354726520035,2.529249467912733e-05,-5.194779905814047e-06,-1.1029512705975274e-05,0.0005817016183438962,-9.368523026383514e-06
2024-03-06 02:10:17.687,-0.0006432390854638306,0.35488685013332466,-9.845005439505654,0.00035121293881638276,2.882703466653682e-05,-3.975692607169149e-06,0.0017675736182833296,0.00014140791604334266,4.875853683371251e-05
2024-03-06 02:10:17.744,0.0036913850047732098,0.33262521485901814,-9.897303390537878,0.00038151819571502244,1.984349756563707e-05,-2.1210832958099604e-06,0.0012122103117704402,-0.00035930832207106244,7.435640489243707e-05
2024-03-06 02:10:17.797,0.004005952632033218,0.2981003988970813,-9.808773826577267,0.00040670113259247073,6.518959036395791e-06,-5.319997937824693e-07,0.0010073182697729424,-0.0005329535008730125,6.380008684412803e-05
2024-03-06 02:10:17.849,0.0011832331387784804,0.2618097786828422,-9.743802904212895,0.00032752754451670265,2.006198332889305e-06,7.55838235905035e-07,-0.0031669437447055496,-0.00018049523712091275,5.1551995871053985e-05
2024-03-06 02:10:17.900,-0.0023373001836256074,0.2509273469473285,-9.785982129084795,0.00031804295575517627,9.41994922905114e-06,5.208566234463759e-07,-0.00037938325629447567,0.0002965473179978871,-9.494340882681546e-06
2024-03-06 02:10:17.954,-0.0031303843448029583,0.26077252476299295,-9.850276818159857,0.00037583710580055,2.1859055015651738e-05,4.8747894829316486e-08,0.00231176681782166,0.0004975559036623924,-1.9049573711413978e-05
2024-03-06 02:10:18.011,-0.0010375986268513309,0.24251871521728627,-9.858140346812869,0.00039079041947685973,2.8437097468818358e-05,3.951014541987536e-07,0.0005981322128013302,0.00026312706823429093,1.376439050169683e-05
2024-03-06 02:10:18.064,0.0019816410397295644,0.21095883583519548,-9.791293275211046,0.00035155194026020273,2.3762869652913126e-05,1.5379474427499556e-06,-0.0015695404382405926,-0.0001869524250455936,4.5734932701410036e-05
2024-03-06 02:10:18.118,0.0039026244643895007,0.19729420245904072,-9.764754215253085,0.00035699831436329465,1.408495050571398e-05,2.789565014126882e-06,0.00021785367604824338,-0.0003870992014618369,5.0208076641745465e-05
2024-03-06 02:10:18.170,0.0017060101550710391,0.19413578071312532,-9.813721384387659,0.0003881864419837577,7.957734290786627e-06,3.479921740377536e-06,0.0012475242876725022,-0.00024508138361736164,2.7726979779082107e-05
2024-03-06 02:10:18.226,-0.0007757567584883455,0.16968838239171774,-9.850530976078398,0.00036816675576595363,1.0211894956317221e-05,4.026659545118446e-06,-0.0008007874150847367,9.01772565369375e-05,2.1829940977005307e-05
2024-03-06 02:10:18.279,-0.002362678860423747,0.14116027034837866,-9.819574560226592,0.00027349219327221997,2.1056258000327353e-05,3.6342936140715146e-06,-0.0037869806147409453,0.00043378545337082993,-1.5851946312845828e-05
2024-03-06 02:10:18.331,-0.0016324262197128273,0.15106602232729352,-9.778819979429414,0.00031274184905382395,2.9578063125479508e-05,3.72720391318182e-06,0.0015699874304047786,0.00034086765591865404,3.6428667311827e-06
2024-03-06 02:10:18.383,0.001188583747013947,0.15881383706628746,-9.793563001349835,0.00035401063163220843,2.9551017926454712e-05,4.861043907512976e-06,0.0016507500500158704,-1.071886627132284e-06,4.54028082138641e-05
2024-03-06 02:10:18.435,0.003009947515973637,0.1437960815477649,-9.822068455698442,0.0003958977919592309,2.1562081167190385e-05,5.660774379302308e-06,0.001675484285718916,-0.0003195529049389905,3.21652441146705e-05
2024-03-06 02:10:18.487,0.0027360105833243624,0.13752851738691851,-9.8162563511831,0.0004420020044285209,1.4157272981719276e-05,6.549220945951136e-06,0.001844166479824916,-0.00029618701164905905,3.570854570915872e-05
2024-03-06 02:10:18.544,8.214335985384894e-05,0.09934279479413989,-9.825616422010178,0.00041987005697103914,1.4906989675972936e-05,7.020000064937308e-06,-0.0008852780644627147,3.0002364530316246e-05,1.880603626620461e-05
2024-03-06 02:10:18.606,-0.0018770544660107657,0.07268879290122685,-9.811352658663889,0.0003070831519316495,2.148175344327343e-05,7.437685405218838e-06,-0.0045114750111628415,0.00026302732260200705,1.6559392408027037e-05
2024-03-06 02:10:18.659,-0.0014675749098795384,0.08146033410031624,-9.79540152515706,0.000300839547518827,2.978554080493941e-05,7.334590110580141e-06,-0.00024974159124674595,0.0003321520948517227,-4.229101357632552e-06
2024-03-06 02:10:18.711,0.00029801328059789233,0.11078686858515227,-9.804077539585572,0.00039900843265384283,3.22762130065297e-05,7.637654405807194e-06,0.00392675598577561,9.960296845837758e-05,1.2199792326814015e-05
2024-03-06 02:10:18.763,0.0022437835198803892,0.10186125025975168,-9.818933344664424,0.0004037544281855448,2.709408828286575e-05,8.871996545532804e-06,0.00018983691370265916,-0.0002072664847254206,4.94635016106606e-05
2024-03-06 02:10:18.814,0.002611288213532211,0.07163890755576148,-9.815728384440627,0.00038502739606337673,1.9676966048959292e-05,9.948832021233262e-06,-0.0007490848245794627,-0.00029666164475950917,4.316734937438091e-05
2024-03-06 02:10:18.893,0.0010666104449090527,0.05720647551465756,-9.80782387759628,0.00035556780295431235,1.72935115741062e-05,1.0567454089892502e-05,-0.0011783851819099382,-9.53176588524333e-05,2.4755589332142893e-05
2024-03-06 02:10:18.947,-0.0009914682573420911,0.0553766693956357,-9.807011112424018,0.00032414498095984895,2.28960777081431e-05,1.027110442829659e-05,-0.001256910310486998,0.00022411206687318033,-1.1948368089456884e-05
2024-03-06 02:10:18.999,-0.0016585075180829366,0.054645162841744435,-9.810084290509765,0.0003289394293067635,3.052423759746927e-05,1.1220928896691902e-05,0.0001917799218213257,0.00030513690824282797,3.7897000255032466e-05
2024-03-06 02:10:19.052,-0.00017744845034297407,0.07292542449389897,-9.800463449374181,0.0004216916984076168,3.4854995770123146e-05,1.1392285496808435e-05,0.003710092731362485,0.00017319162431916402,6.894480831466236e-06
2024-03-06 02:10:19.105,0.0016656947427789034,0.07063072363178534,-9.803574252890154,0.0003900081317769899,3.194862037099614e-05,1.1999133082701722e-05,-0.0012673448702632064,-0.00011623111875102711,2.4275063301916037e-05
2024-03-06 02:10:19.160,0.0025742477304788614,0.04360218207277252,-9.830511080700845,0.00034539776102354556,2.6478531909818528e-05,1.3087211164347791e-05,-0.001784418730005045,-0.00021876709965889767,4.354167829572954e-05
2024-03-06 02:10:19.214,0.001168995585385687,0.05435174112929842,-9.820823184343071,0.000380903500074153,2.3017480245324655e-05,1.3966619654325098e-05,0.001420227032944191,-0.00013844722961837223,3.526668305520288e-05
2024-03-06 02:10:19.265,-1.4442067477627886e-05,0.055245277794593324,-9.800988063355543,0.0004194081208974226,2.491638631722734e-05,1.4291640964907724e-05,0.001540185693460829,7.594019325322796e-05,1.3004455246162808e-05
2024-03-06 02:10:19.317,-0.0010663246418969373,0.028418267735000325,-9.799825586573123,0.0003275200937538319,3.0021372500472517e-05,1.4773798334955676e-05,-0.003675518999296125,0.000204258256533599,1.912781891284771e-05
2024-03-06 02:10:19.372,-0.0005250361090979952,0.02280982463051234,-9.811406675370652,0.00030950086512605704,3.583431569516453e-05,1.4703514480411518e-05,-0.0007207656423382561,0.00023252748862998498,-2.904960070464266e-06
2024-03-06 02:10:19.427,0.000589352460418781,0.04657460410061311,-9.817603322958789,0.00039626659544834795,3.616443935924319e-05,1.5377207705211675e-05,0.0034706286473413332,1.3164648265354876e-05,2.7066884244128065e-05
2024-03-06 02:10:19.481,0.0021700714874397695,0.042260050309333684,-9.80932386566371,0.000420067472097766,3.1303331565972e-05,1.6237178480518756e-05,0.0009520310759525599,-0.00019444446958535202,3.451494370731394e-05
2024-03-06 02:10:19.532,0.0019249598632049092,0.012626129171156235,-9.80260474613603,0.0003987923420813902,2.5919195756636406e-05,1.7876077226899524e-05,-0.0008510104694334372,-0.00021532546448783962,6.561518591621867e-05
2024-03-06 02:10:19.584,0.0004592432484437091,0.0014035084331567764,-9.811016264965916,0.00032425301431548563,2.4921744454726208e-05,1.9274425905073737e-05,-0.002981575412042993,-3.9826636556171355e-05,5.586958594597623e-05
2024-03-06 02:10:19.640,-0.0006272456318404003,0.026185063684362134,-9.803915396333034,0.00036226587426815756,2.8784473831253982e-05,1.9642778301130697e-05,0.0015205170425134766,0.0001544852100239816,1.471602658720427e-05
2024-03-06 02:10:19.692,-0.0008007684175988017,0.040325063122567284,-9.812346100407046,0.0004215985660982704,3.562583984228523e-05,1.967327501724989e-05,0.002373313189853161,0.0002736085429788108,1.1728317168529754e-06
2024-03-06 02:10:19.744,-1.951987847459701e-05,0.018932245631078697,-9.827512035888512,0.0004010051640740089,3.840169811066699e-05,1.9930005536912905e-05,-0.0008237343579097414,0.00011105463400145414,1.019534207065192e-05
2024-03-06 02:10:19.797,0.0017821286070831008,0.0023819839731034054,-9.810728393171777,0.0003802068933308227,3.541876514232588e-05,2.145047846354288e-05,-0.0008319354258411688,-0.00011927761778264839,6.083232411514694e-05
2024-03-06 02:10:19.851,0.0018634207460169955,0.013837156509333306,-9.793513548123473,0.0004006438349191875,3.125935778556178e-05,2.2307482503345623e-05,0.0008174730833104485,-0.0001663800702047158,3.437577757987199e-05
2024-03-06 02:10:19.904,0.0013711012203617519,0.01605175508458446,-9.80740329234156,0.00042339045576535183,2.8452931263904192e-05,2.321568013840062e-05,0.0009098613718260706,-0.00011226195434407186,3.640388123582544e-05
2024-03-06 02:10:19.991,-0.00012776842159148324,0.00025545510803486873,-9.823948982151785,0.0003902353976710894,3.0389322453087984e-05,2.3703978704027787e-05,-0.0013262012267859543,7.749403834103875e-05,1.9463969402045944e-05
2024-03-06 02:10:20.045,-0.0008199737715041826,-0.010067849301973764,-9.815279673245492,0.000308569524125273,3.5747736942348476e-05,2.4338831549930232e-05,-0.0032666309630764293,0.00021442181096304602,2.5228683475829592e-05
2024-03-06 02:10:20.097,-0.0003693810607132432,0.011802190314158372,-9.799231961592259,0.00037557260989624626,3.8979966157026684e-05,2.549355789030901e-05,0.002680124933701707,0.00012924131502855976,4.6236328014684854e-05
2024-03-06 02:10:20.149,0.0011998705643581702,0.03465155261015509,-9.790364467251498,0.000497017082668211,3.991400297022651e-05,2.625397024804259e-05,0.004857779110150563,3.7252849028969005e-05,3.0587346405044105e-05
2024-03-06 02:10:20.201,0.0015993705951354695,0.03485517409419425,-9.796462487783668,0.00048786777143662146,3.710069576878663e-05,2.732424924442614e-05,-0.00036597703746917747,-0.00011250178731393254,4.285144342288355e-05
2024-03-06 02:10:20.256,0.0014978602250955624,-0.001051851036270938,-9.851846934813825,0.0004773773558162123,3.2969090459608095e-05,2.805818255358859e-05,-0.0004196221590364412,-0.00016523872066513359,2.9420648742389716e-05
2024-03-06 02:10:20.314,0.0007967783906351955,-0.01122606943338701,-9.83815770433653,0.0004652552630518326,3.36027538395417e-05,2.855482142432968e-05,-0.00048488371966189775,2.536937264560981e-05,1.9837767669155606e-05
2024-03-06 02:10:20.368,-0.0006053626290263692,-0.010403064158445321,-9.784643073550615,0.0003994330916950913,3.661656732537748e-05,2.924553630908844e-05,-0.002632884664884036,0.00012063871483444865,2.749194081547169e-05
2024-03-06 02:10:20.419,-0.00044771217209807175,-0.00255723981940783,-9.77819515514378,0.00041331352147437275,4.09620019714619e-05,2.9567679172762216e-05,0.0005552217950451758,0.00017380646782829472,1.2834209516389606e-05
2024-03-06 02:10:20.476,0.00023303554742592637,0.01639879600915199,-9.81950247586274,0.00046486410741455853,4.4143900018048276e-05,3.0222523767915005e-05,0.0020620262434647703,0.00012722715695045686,2.6219109629792983e-05
2024-03-06 02:10:20.530,0.0012224439375669023,0.009309324242467347,-9.838407578171429,0.00041629747853181437,4.277905233295641e-05,3.128196937824554e-05,-0.0019426688047831549,-5.451758223722917e-05,4.231476811531426e-05
2024-03-06 02:10:20.583,0.0016844959073104163,0.002720847869938044,-9.81067940560668,0.0003891997203216235,4.08157083164552e-05,3.245113612334657e-05,-0.0010839147811736042,-7.84816636771864e-05,4.675085005521074e-05
2024-03-06 02:10:20.638,0.0009389623082494222,0.015799895731894362,-9.787372686754907,0.00040954352817310633,4.002711784416394e-05,3.324995963550871e-05,0.0008137500752123143,-3.155692334101547e-05,3.199908119955275e-05
2024-03-06 02:10:20.692,3.7623903981629375e-05,0.01025441548742802,-9.80287725110842,0.00040300191923176124,4.101941672167291e-05,3.396793305547826e-05,-0.00026166423610742153,3.9712221855909215e-05,2.869246143123675e-05
2024-03-06 02:10:20.745,-0.00010111038849992026,-0.0021714601976761177,-9.824903867142183,0.00034133346911621796,4.676547818907346e-05,3.452180158015511e-05,-0.0024667313958380748,0.00022993376616086043,2.197507689810255e-05
2024-03-06 02:10:20.797,-0.00041027126412608914,0.009763080711430006,-9.817728678971378,0.0003663301652114149,4.9298067757062196e-05,3.486108646678572e-05,0.0009998707346839542,0.00010127404808800265,1.3581056524116433e-05
2024-03-06 02:10:20.847,0.0013757652624481443,0.02245520144224389,-9.79962442090656,0.00042739514193955333,4.9807230140520376e-05,3.6265416758531134e-05,0.002442597170706734,2.0305405230571622e-05,5.6284956406247905e-05
2024-03-06 02:10:20.897,0.000953322273938918,0.013820619077006985,-9.799734410097399,0.0004210621239513554,4.720185233147229e-05,3.793064497382355e-05,-0.00025332766640747995,-0.00010417787497630956,6.664038246314998e-05
2024-03-06 02:10:20.949,0.001901636370065664,-0.008330349046405764,-9.817565231867297,0.00040746484060739404,4.404714541785365e-05,3.822543654181516e-05,-0.0005438966873912145,-0.0001261628415393723,1.1817397842771153e-05
2024-03-06 02:10:21.022,0.0005699117891589837,-0.0016729300911109922,-9.810602664630174,0.0004216544450710287,4.3802754023444375e-05,3.8843701278031834e-05,0.0005675827696382237,-9.786912539537455e-06,2.4759718941432647e-05
2024-03-06 02:10:21.103,-0.0003453570691036224,0.010483999428728215,-9.79904867731828,0.0003626011499224829,4.560779288034231e-05,3.994539498970604e-05,-0.0023621311868962467,7.230924812201877e-05,4.393806687770344e-05
2024-03-06 02:10:21.154,-0.00036156081920839624,0.011318903042485187,-9.822481404108412,0.00033266471894473056,4.8607838204317496e-05,4.059011076685558e-05,-0.001197453766651273,0.00012005820092617783,2.5694080920383853e-05
2024-03-06 02:10:21.216,0.00046134990239485226,0.02829659817711077,-9.820793288889845,0.00039335714350920115,5.117725434702732e-05,4.1599074224028785e-05,0.002427699246467973,0.00010269402271459457,4.043615427734204e-05
2024-03-06 02:10:21.294,0.000905350330157475,0.030703831086178184,-9.804607555237611,0.0004656054397317467,5.055346973106308e-05,4.218851169352143e-05,0.0028899298799512103,-2.506054836401307e-05,2.37370727495577e-05
2024-03-06 02:10:21.348,0.0014366628704208036,0.0002637967429322806,-9.799504745961407,0.0004259311029574674,4.588306578158061e-05,4.310017546316757e-05,-0.0015869831835675897,-0.00018673368930624377,3.6465863647046576e-05
2024-03-06 02:10:21.397,0.0015134117282637688,-0.015678694597860022,-9.800049103980413,0.0003990382343988482,4.54987283436375e-05,4.375815904170304e-05,-0.001075716691722417,-1.5316649357129534e-05,2.6276100657224174e-05
2024-03-06 02:10:21.449,-0.0004975092783916583,0.009487877247072537,-9.808928239852804,0.000372268299540801,4.577721975720257e-05,4.434618062148134e-05,-0.0010707980605200145,1.1195250528576427e-05,2.3467977905095324e-05
2024-03-06 02:10:21.505,0.00011023022290961474,0.01806962578151057,-9.836258178903567,0.00039723517022903086,4.9240598001441134e-05,4.532827178723893e-05,0.0009986791117719358,0.00013850645510758093,3.927434748287517e-05
2024-03-06 02:10:21.558,-0.00031886302074117116,0.01867519713387674,-9.817258640490294,0.00046237188808400336,5.324651289421875e-05,4.596988174826324e-05,0.00260547484978742,0.00016013040729439596,2.5718660431565644e-05
2024-03-06 02:10:21.614,0.0005357669264226234,0.0010759938107251393,-9.79249877909437,0.0004286878173097159,5.1788262508367324e-05,4.710454629715037e-05,-0.0013473679939438497,-5.824864474752455e-05,4.533981510644116e-05
2024-03-06 02:10:21.707,0.0019587220045493283,-0.015768212757867203,-9.798968304183909,0.00036288429338679744,4.972886567481343e-05,4.831434296029959e-05,-0.0026321474450508144,-8.223436634555583e-05,4.828540110749374e-05
2024-03-06 02:10:21.759,0.00102880649366999,0.0015204908055183187,-9.819086826617431,0.00035555662631725303,4.8495868086319634e-05,4.871331372890041e-05,-0.0002931098583876987,-4.930006999119914e-05,1.596178478578667e-05
2024-03-06 02:10:21.811,0.00018311407200103595,0.016080361306393762,-9.821426495078251,0.00037883226064676774,4.9852407511920973e-05,4.9829546450345606e-05,0.0009310258528844388,5.423315213681477e-05,4.4673918341572726e-05
2024-03-06 02:10:21.862,-0.00018301129768353167,0.00878851111886324,-9.806621726474066,0.000322267433985007,5.147767993653813e-05,5.0434180217546925e-05,-0.002262591203864674,6.513139865219103e-05,2.4051569839756738e-05
2024-03-06 02:10:21.916,0.00047166793597635994,0.014705422501741864,-9.797944966987528,0.0003414116998493089,5.43957280389526e-05,5.021073885656938e-05,0.0007657770495438719,0.00011668025868656722,-8.938070204471381e-06
2024-03-06 02:10:21.970,0.00030995502504575485,0.019012668617126468,-9.808758739152275,0.0003904700436283095,5.438522785429656e-05,5.0535802287794e-05,0.0019623331493835647,-5.134161451947657e-07,1.3109483715136144e-05
2024-03-06 02:10:22.020,0.0013416835474180683,0.008718732676400491,-9.816708322007093,0.000360865164510915,5.063829927903855e-05,5.103817501581545e-05,-0.001184203839525265,-0.00014981005969705354,2.0084569384330696e-05
2024-03-06 02:10:22.075,0.001544348248760759,0.011793639836549985,-9.811195544553014,0.0003904998460149755,4.959324924306355e-05,5.2017147308257274e-05,0.001185383265376254,-4.18471822827011e-05,3.923526279357566e-05
2024-03-06 02:10:22.128,-0.0003595219339780001,0.01825915582815819,-9.792632610141986,0.0004562959403796764,4.988230644121916e-05,5.2978259370607606e-05,0.0026318426889960726,1.1442991730555386e-05,3.8569791354291954e-05
2024-03-06 02:10:22.180,0.0002445727983876442,0.0043177991979130225,-9.817238710188144,0.0004193820428758786,5.224827788052606e-05,5.314557088006707e-05,-0.0014765513711063297,9.471985178937601e-05,6.579084820957783e-06
2024-03-06 02:10:22.249,1.7335111722051013e-05,-0.01895192609504612,-9.834299235093164,0.00032282995267868535,5.567188411600343e-05,5.3222902127031524e-05,-0.003862076754858352,0.00013715043813485687,2.8471968035573087e-06
2024-03-06 02:10:22.300,0.0002990647672678657,0.0020901565252130837,-9.808685257804628,0.0003717094834687143,5.7106753005538686e-05,5.3791051670672766e-05,0.0019551831021674968,5.72991818608309e-05,2.2813536012208163e-05
2024-03-06 02:10:22.353,0.0011019725252031886,0.025699461805626295,-9.789285157571042,0.0004311688344276866,5.647947676999855e-05,5.447130514562098e-05,0.0023783713367336993,-2.52071874851423e-05,2.7356835044660843e-05
2024-03-06 02:10:22.407,0.0010870966913011783,0.016259701238462515,-9.802780952358779,0.00045247009452521096,5.635347428224936e-05,5.4726857343393705e-05,0.000852049634000232,-5.0818637843727634e-06,1.027251219719471e-05
2024-03-06 02:10:22.458,0.00046304273627634403,-0.007760211833311312,-9.827162510542863,0.0004088990766538141,5.796017818624844e-05,5.518574979093242e-05,-0.0017428384156915314,6.437099865828921e-05,1.8231165318861352e-05
2024-03-06 02:10:22.514,0.00011068747738882592,-0.021615597071238023,-9.823467674668086,0.0003399923641327213,5.895442133446961e-05,5.612201819960485e-05,-0.002756268697135215,3.993451465923789e-05,3.727741261089704e-05
2024-03-06 02:10:22.566,0.0006746694189278644,-0.002756358440867131,-9.799513034731927,0.0003204196897581573,6.249690015399413e-05,5.674343993817955e-05,-0.0007829006124292679,0.0001417510342444694,2.4765296048496787e-05
2024-03-06 02:10:22.618,3.4874066776625786e-05,0.01751907519527214,-9.79434149385298,0.0003746487369589148,6.597550534807746e-05,5.753845003613435e-05,0.002169167812294876,0.00013903308092121547,3.188388730425547e-05
2024-03-06 02:10:22.675,0.0007159775635580333,0.021230071062091856,-9.813177212633159,0.0003841743032942546,6.530383960648337e-05,5.829534226442411e-05,0.0003810191564248294,-2.687691011542321e-05,3.031115493604581e-05
2024-03-06 02:10:22.726,0.0019218742121502519,0.00769673269864673,-9.820630493711535,0.0003298036955520029,6.276391305978066e-05,5.985301688098589e-05,-0.002174834275071573,-0.00010144976792904877,6.219842518521378e-05
2024-03-06 02:10:22.783,0.0008090352550870583,0.014974203639200996,-9.806245658436298,0.0003641285398101548,6.292657010087352e-05,6.0368481368452364e-05,0.0013729929404070326,6.43164414340035e-06,2.0702414824393808e-05
2024-03-06 02:10:22.837,1.5940053497203415e-05,0.040917517038109134,-9.790711012365053,0.00045925379249532887,6.464132520392383e-05,6.103198816824583e-05,0.003805012843892431,6.837280440532288e-05,2.674832177976964e-05
2024-03-06 02:10:22.891,0.0001744256459021313,0.009903880238907512,-9.8295701655484,0.0004290640708571436,6.700177444619499e-05,6.19590406375479e-05,-0.001207585697871394,9.45075410111037e-05,3.696349370884121e-05
2024-03-06 02:10:22.944,0.000283536143574664,-0.020037683308193686,-9.830112288393334,0.00033221023280348357,6.833377528077946e-05,6.194653185127062e-05,-0.0038741504509061664,5.351982941910524e-05,-7.776946645483827e-07
2024-03-06 02:10:22.997,0.0009015581978628913,-0.00017880198871557236,-9.79833323535044,0.00038200990968127263,6.806124578299859e-05,6.287871919984001e-05,0.0019919839814051257,-1.1010276071947476e-05,3.7427825725322535e-05
2024-03-06 02:10:23.052,0.0008577879488738128,0.023888223020059232,-9.788733255839539,0.000467363747657445,6.632244950985675e-05,6.409591187932329e-05,0.003414146210992174,-6.974364735177173e-05,4.8952688580763157e-05
2024-03-06 02:10:23.106,0.0009667386900792177,0.013647367529556394,-9.81258684728115,0.00047257545581842894,6.599835302325279e-05,6.464865552463075e-05,0.00020846605871046827,-1.2966764799507288e-05,2.2129702166080526e-05
2024-03-06 02:10:23.158,0.0002968363987729535,-0.025463624520114237,-9.831544848709566,0.00039868803243127627,6.631295635115671e-05,6.550151242511513e-05,-0.0029554986513256496,1.2788731563953679e-05,3.391412916311257e-05
2024-03-06 02:10:23.212,0.00016577926972033167,-0.026515339950731583,-9.812319185185919,0.00031109901348316913,6.645808466812812e-05,6.63985382266985e-05,-0.0035035629678852195,6.045721538621093e-06,3.5646831559387345e-05
2024-03-06 02:10:23.265,0.0005847227561966417,0.005026528413049691,-9.791923873696366,0.0003285296460237695,7.013573910569339e-05,6.683083888578868e-05,0.0006972338925723433,0.00014706557149245925,1.7290049196476827e-05
2024-03-06 02:10:23.317,-0.0001766692777424611,0.033760652456188554,-9.803593345002028,0.0004176721090728975,7.040894171143405e-05,6.686584129464974e-05,0.0035656993865741562,1.0690505051391277e-05,1.6457249627335749e-06
2024-03-06 02:10:23.370,0.0016014514563865297,0.018999516380762776,-9.82196694154263,0.0003975257419208094,6.730725966764081e-05,6.753415313760936e-05,-0.0008058648472801003,-0.00012400278283124783,2.672503068245811e-05
2024-03-06 02:10:23.428,0.0012184007819043814,-0.00274265939926168,-9.815469476777182,0.00035513943535764173,6.698693011734841e-05,6.937268064615368e-05,-0.0016954581652639947,-1.2672600704526467e-05,7.343149163159226e-05
2024-03-06 02:10:23.483,3.923545319909653e-05,0.018132488563013718,-9.79325566491481,0.0004623979640354747,6.835491971597382e-05,7.024042605019434e-05,0.004290342913186774,5.4438143853778176e-05,3.497206084322786e-05
2024-03-06 02:10:23.536,8.189089905802547e-06,0.02407721976177643,-9.799791407036258,0.0004921221089023169,6.997069178965992e-05,7.162816977067529e-05,0.0011889665839500368,6.457472070178843e-05,5.5559250134255405e-05
2024-03-06 02:10:23.593,0.000531932093709091,-0.017549891011617084,-9.835431630157855,0.0004133284703057809,7.167217304529084e-05,7.182469169098835e-05,-0.003151741537289531,6.828816488129138e-05,7.612131414390956e-06
2024-03-06 02:10:23.647,0.0007989125795371269,-0.004564038811529497,-9.807868115416472,0.00035106765081978125,7.142639161638743e-05,7.308856239215044e-05,-0.0024904372650626627,-9.634690664911074e-06,5.037972435708743e-05
2024-03-06 02:10:23.700,0.0007585125766922276,0.030701192483012098,-9.806958399568797,0.00042091313599972464,7.091981990402957e-05,7.434935009241456e-05,0.0027938145448614454,-2.0445744428140833e-05,5.063967786424844e-05
2024-03-06 02:10:23.756,0.0010159341798670115,0.03906603035131014,-9.81314908669274,0.0005346425041398339,6.910426812028877e-05,7.584315840518219e-05,0.004549165695598939,-7.292815183496533e-05,6.011397713681328e-05
2024-03-06 02:10:23.835,0.0005908061499628635,0.0009368498647963431,-9.81375547079227,0.000534493492585859,6.76767543044105e-05,7.663410596273804e-05,-5.966935585130591e-06,-5.708318219351812e-05,3.166800523288698e-05
2024-03-06 02:10:23.895,0.00046537234147435343,-0.04403114753633176,-9.808130189576522,0.00041814524548714735,7.011514992471945e-05,7.734371984783937e-05,-0.004653924900454399,9.790422164489385e-05,2.802867803361772e-05
2024-03-06 02:10:23.949,-0.0002381451083129922,-0.034348329759784815,-9.804681595378776,0.0002954789064778436,7.16067869582087e-05,7.876568304371607e-05,-0.004906653303601292,6.006170372237981e-05,5.651677620009879e-05
2024-03-06 02:10:24.004,0.000639212684398223,0.012061328784611,-9.806990437063844,0.000320736338700877,7.324584020377482e-05,7.907741872912496e-05,0.0010103015835249798,6.548657325090747e-05,1.2520769661701207e-05
2024-03-06 02:10:24.058,0.0008998134517315906,0.050246059141454504,-9.812233782909884,0.0003973581033319219,7.40235653167216e-05,7.974687742797888e-05,0.0030648712449417733,3.087737855430481e-05,2.6990579222384504e-05
2024-03-06 02:10:24.112,0.0006644949163932484,0.03533460804163536,-9.81269385623989,0.0004404112768688384,7.214560291464849e-05,8.084726273743564e-05,0.0017221179161763204,-7.523637898083427e-05,4.417603212230225e-05
2024-03-06 02:10:24.165,0.0011073793601037508,0.007420379029079527,-9.80746149999971,0.0004916675644576123,7.100847511665565e-05,8.252048130038947e-05,0.00205024328592881,-4.561788001901254e-05,6.709910013169601e-05
2024-03-06 02:10:24.217,0.0002916964380269248,-0.019770890132790587,-9.807969350175526,0.00046116861786018963,7.19148131389437e-05,8.27409585748642e-05,-0.0012199556360271728,3.6358217028486206e-05,8.715699034377296e-06
2024-03-06 02:10:24.274,0.00023584390208569682,-0.03552408126191983,-9.813861082767215,0.00032565372156936504,7.318139690157696e-05,8.33930221267774e-05,-0.00542059395660059,5.112024659614324e-05,2.5676105485759822e-05
2024-03-06 02:10:24.349,0.00043321196286513075,-0.00784579159722978,-9.804033022368621,0.0003400668688958853,7.557847545479739e-05,8.379099478457066e-05,0.000576532717065517,9.584048652465198e-05,1.5928506969127778e-05
2024-03-06 02:10:24.409,0.0002467189457232505,0.0411573024456184,-9.795749746651166,0.00040412695468795704,7.689200230864071e-05,8.471326408431892e-05,0.0025624051614420384,5.234135676349553e-05,3.7063292257875e-05
2024-03-06 02:10:24.460,0.0007801785755018083,0.04145353076194697,-9.828829112210977,0.00045181068969624583,7.600366904316355e-05,8.551985101870605e-05,0.001907344100692421,-3.568025780879781e-05,3.242626497380776e-05
2024-03-06 02:10:24.512,0.0012315493774472683,0.004184393839272358,-9.827697369072059,0.00041734805788839146,7.33467347192013e-05,8.681654965433126e-05,-0.0013785182886149685,-0.00010613786865492496,5.1807476263502235e-05
2024-03-06 02:10:24.567,0.0008059317921479469,-0.011714503842287515,-9.799175150917906,0.0003906935596029107,7.124095542101345e-05,8.77279631100371e-05,-0.001066189922850074,-8.412438928904677e-05,3.641120776639004e-05
2024-03-06 02:10:24.621,0.0004785913546411804,-0.0008577142513847602,-9.792322945400635,0.00038496778905024523,7.216084765820246e-05,8.726489223829961e-05,-0.00022902627280310886,3.68086420746166e-05,-1.855332250087364e-05
2024-03-06 02:10:24.675,-0.000367043827128785,0.001147629702760411,-9.812356717483894,0.0003712847990981347,7.561569839727453e-05,8.672514756031794e-05,-0.0005473059381537644,0.00013823375117837173,-2.1680606608377013e-05
2024-03-06 02:10:24.725,2.8808300153755528e-05,0.005342761968203921,-9.823991636723676,0.00038265065858611306,7.715224212472745e-05,8.746036089086575e-05,0.0004546374728586534,6.14335830536356e-05,2.941940592734262e-05
2024-03-06 02:10:24.778,0.00102208115583638,0.01365784058792354,-9.801747463746814,0.00046052786763321995,7.737319320564527e-05,8.786756949845626e-05,0.003115088131882575,8.57321693575407e-06,1.6524744606030896e-05
2024-03-06 02:10:24.850,0.0009606224919775294,0.022421140901386333,-9.78869991449295,0.0004028156525670575,7.610455451527597e-05,8.851292936235603e-05,-0.002308495226793468,-5.053237034446154e-05,2.5656142242163987e-05
2024-03-06 02:10:24.906,0.0007296816613853524,0.009990142805940906,-9.827305747948033,0.00043980408046374,7.516719617652214e-05,8.91539087943121e-05,0.0014795319911974707,-3.761396005751203e-05,2.5768324259599418e-05
2024-03-06 02:10:24.963,0.00048064192972010995,0.021601007958369303,-9.820961206342075,0.0005292333831415998,7.523161424611839e-05,8.971965430461851e-05,0.003577171032251273,2.269934493662951e-06,2.2897522626984425e-05
2024-03-06 02:10:25.016,0.00038315620996859265,0.006235351360705873,-9.80695206657559,0.0004906990471871477,7.480608296067842e-05,9.043724365050796e-05,-0.001541377301942269,-1.6868927512134752e-05,2.859589740172355e-05
2024-03-06 02:10:25.098,0.0004950011251813169,-0.028352387852760237,-9.812850039028234,0.0003689713938768147,7.638661527608526e-05,9.097368857433625e-05,-0.004869102469546785,6.36694420285962e-05,2.107009464961064e-05
2024-03-06 02:10:25.171,0.00030556134729964855,-0.0020718263993339298,-9.80885177827306,0.0004060045246626271,7.8176839145116e-05,9.154645610843625e-05,0.0014813300584557787,7.148353720538893e-05,2.2994837067694694e-05
2024-03-06 02:10:25.225,0.0004108807250233122,0.031081955673267606,-9.807231463334706,0.0004978440938936261,7.840676344455658e-05,9.182111971789886e-05,0.0036735831003102343,8.866293187215258e-06,1.126933638316037e-05
2024-03-06 02:10:25.278,0.0008903553666660457,0.0075183426715763725,-9.81120672042338,0.000513941069869324,7.6855550411633e-05,9.28089466733047e-05,0.000643870382155644,-6.208730071820562e-05,3.959547720435078e-05
2024-03-06 02:10:25.331,0.0012681532007463533,-0.022365429442277502,-9.812079183369839,0.000447098224366024,7.772661338472873e-05,9.324541082675768e-05,-0.002673712230895242,3.5098380779353064e-05,1.7237394231991745e-05
2024-03-06 02:10:25.384,-0.00010700028159318871,-0.03067464974542153,-9.808955341338438,0.00036717212236597106,8.156209391643487e-05,9.336096333328551e-05,-0.0031970303868469494,0.000153718936275084,4.31717681968329e-06
2024-03-06 02:10:25.436,-2.9753498162020432e-05,-0.0038979542263707467,-9.806739166245146,0.00035550074493529983,8.529316664501528e-05,9.422895251797183e-05,-0.0004668441459437339,0.00014929881541613096,3.462841746710237e-05
2024-03-06 02:10:25.491,0.00048071812831947363,0.020021879553839755,-9.80800902451532,0.0003494583244275805,8.847338617080165e-05,9.427928049350342e-05,-0.00024168502052749867,0.0001272322443938247,1.9480427591011984e-06
2024-03-06 02:10:25.545,0.0007919140692984726,0.02940070974280146,-9.81119321624669,0.0004132799907959744,9.184921740162949e-05,9.47327667876489e-05,0.0025528778886234286,0.0001348001526053934,1.8309612698461564e-05
2024-03-06 02:10:25.597,0.0006258918106718065,0.015114611452302853,-9.813476260297662,0.0004581958352878183,9.376193947080792e-05,9.532852600603264e-05,0.0017966389519829837,7.63496731406608e-05,2.3960412063151346e-05
2024-03-06 02:10:25.650,0.001159906937050455,0.0008188699732594018,-9.809111430994529,0.0003960058218048972,9.55634780585301e-05,9.667636491421126e-05,-0.0024875990213982387,7.231994260972901e-05,5.3651687176082616e-05
2024-03-06 02:10:25.703,0.0005483626092539554,0.003422562095929713,-9.789362923002328,0.0004050582760118272,9.49741542243637e-05,9.814898931352934e-05,0.000362090322006005,-2.3584083106426075e-05,5.89491370472903e-05
2024-03-06 02:10:25.758,0.001329043188859076,0.004480058615657453,-9.815935883100396,0.00041574243172964556,9.703895269360619e-05,9.889399462035711e-05,0.00042737147966431316,8.256239263840727e-05,2.980647991063303e-05
2024-03-06 02:10:25.811,-0.00019307755330075257,0.002487462600499614,-9.836826471911603,0.0003889352215221119,9.753019879995988e-05,9.874472351365546e-05,-0.0010722859586213183,1.9753524245251867e-05,-6.082579713906332e-06
2024-03-06 02:10:25.861,0.001163080868772581,0.0027329543466059407,-9.810892026540364,0.00039709733161683784,9.615561726794253e-05,9.887936480853372e-05,0.0003264784769067477,-5.501334409409379e-05,5.439339565692277e-06
2024-03-06 02:10:25.914,0.0010098415547300052,0.003993305032466777,-9.787309543087346,0.00042954093141425205,9.047477726830238e-05,0.00010088266498691055,0.001297714368052737,-0.00022732742269031638,8.035444621292919e-05
2024-03-06 02:10:25.975,0.0013104664279237125,0.012138014321730535,-9.800487756892222,0.0004481971574584919,8.710725400246624e-05,0.00010254473437780965,0.0007462297249528256,-0.00013474637168010226,6.661069149233175e-05
2024-03-06 02:10:26.026,0.00017042371681535935,-0.01000435830408823,-9.828330575260464,0.0004238747399775035,8.465077503772082e-05,0.00010302796824552973,-0.0009729084982012684,-9.815122567242903e-05,1.9286214246897768e-05
2024-03-06 02:10:26.093,9.368265291529236e-05,-0.020412112163738,-9.824021252780144,0.0003253370710081756,8.372288473826927e-05,0.00010409240218455327,-0.003941514390728417,-3.669576425449492e-05,4.2255666419362756e-05
2024-03-06 02:10:26.145,0.0002180309475543725,-0.006210829065499331,-9.798275772750317,0.00028406085574009563,8.111398915253119e-05,0.00010500093056926298,-0.0016510624851916289,-0.000104173670403804,3.6232500640451826e-05
2024-03-06 02:10:26.198,0.0010638786114350327,0.02947546924876687,-9.793691803255788,0.0004029646393602058,7.955085070223542e-05,0.00010570172569161579,0.004756142791571572,-6.301345863043433e-05,2.844301904217267e-05
2024-03-06 02:10:26.250,0.00020793138595853752,0.026417876132748312,-9.814270305887064,0.0004307329987754853,7.845756651511775e-05,0.00010626749375147038,0.0011107280651506631,-4.383898258672937e-05,2.2737968585649575e-05
2024-03-06 02:10:26.303,0.00037091334462904476,-0.010076944046054836,-9.821493457168186,0.0003618784411576451,7.778387575516058e-05,0.0001070806149933202,-0.002754187890878038,-2.6643248953720532e-05,3.231841688332519e-05
2024-03-06 02:10:26.354,0.0003032257834905401,-0.00906649239733406,-9.808074217092447,0.00040767715496685473,7.758644854596849e-05,0.0001071222388621248,0.0018319476971745655,-8.092513730648055e-06,1.8107545354440933e-06
2024-03-06 02:10:26.409,0.00042838654036626514,0.003787036259587529,-9.803268034042167,0.00041407722739963303,7.905495960275695e-05,0.00010756146544235327,0.00025600782282760145,5.8720296860990834e-05,1.7564612956269993e-05
2024-03-06 02:10:26.461,0.00011947318726414076,-0.01893464464777218,-9.81340231328875,0.0003526024689645114,8.011372504197008e-05,0.00010803973209615482,-0.0024589874715502317,4.262179055037739e-05,1.892125192423344e-05
2024-03-06 02:10:26.512,0.0007600104348141168,-0.016780514805445266,-9.814225229876593,0.00032285602766046897,8.167561208088269e-05,0.00010934214419270835,-0.0011898552107112259,6.262082080604539e-05,5.19809477224131e-05
2024-03-06 02:10:26.589,0.00037493320159636686,0.02035347537190328,-9.796605818321094,0.0004424155074536909,8.325805405574963e-05,0.0001098844228468125,0.004782384617441564,6.27845499252297e-05,2.2054007120129907e-05
2024-03-06 02:10:26.645,0.0006893777494933023,0.030968260746443366,-9.796061180905326,0.00038892404567585336,8.307304515818936e-05,0.00011064167132336788,-0.0021396619643563927,-7.1535239411578926e-06,3.0114586000692344e-05
2024-03-06 02:10:26.695,0.0009878029388009774,0.016692438228577983,-9.834095741120276,0.00037763643974013665,8.480507050069187e-05,0.00011148284463637485,-0.0004514994505647334,6.934365643338283e-05,3.3583241397248945e-05
2024-03-06 02:10:26.746,0.00027508663266314736,0.014025930493071251,-9.83256613699638,0.0004138425336075707,8.810871080762873e-05,0.00011219168867583345,0.0014482560931301505,0.00013199593362424105,2.8421961135568792e-05
2024-03-06 02:10:26.798,0.00020662968984729203,0.004499000228901615,-9.797065984783353,0.00109630082177595,9.375553404924859e-05,0.0001607301588676723,0.027298183055435236,0.00022494213398846586,0.0019436996518306742
2024-03-06 02:10:26.851,0.019336718954863674,0.15525220659775074,-10.030329682354989,0.0008298345352961812,9.724806814643815e-05,0.00017221562493785172,-0.01065867839488673,0.0001417950340034832,0.0004583020610074724
2024-03-06 02:10:26.903,-0.008813799819639024,-0.09610126579101007,-9.580090745739053,-0.0004385449006416282,0.00010065340789645747,0.00017177402388333522,-0.05073515555126887,0.00014496399990331722,-2.2528825009168348e-05
2024-03-06 02:10:26.956,-0.003262306122966788,-0.1269722832776092,-9.321833052287356,-4.878267832115662e-05,0.00010166502422040369,0.00017355829848979273,0.015590488836315808,3.778336029242393e-05,7.294258667861927e-05
2024-03-06 02:10:27.011,0.0024133650403786525,0.22649889299038642,-10.174970124919454,0.0008341223410637045,9.96906068182224e-05,0.000175105256351956,0.0353161840721659,-8.504988802637913e-05,6.55424066782841e-05
2024-03-06 02:10:27.063,0.002295166227793051,0.04964916216260659,-10.28960102724875,0.0009275414847287264,9.728215918451698e-05,0.00017632807491494142,0.0037367454952396567,-9.694645780818882e-05,4.9375235572479e-05
2024-03-06 02:10:27.116,0.001463329543711623,-0.2673374896299419,-9.668290342127152,0.0002959743305393456,9.61408348585489e-05,0.00017677852403853692,-0.0252627005902731,-4.1193067046273986e-05,1.557395479511665e-05
2024-03-06 02:10:27.167,0.0010286979227451228,-0.21230781186426323,-9.370165711381985,-0.0002586543882593671,9.897073830032282e-05,0.00017751719164207715,-0.022185131496615437,0.00011711149124007891,2.7445187635216398e-05
2024-03-06 02:10:27.221,0.00048647212479191216,0.07246447295584892,-9.799717739424105,-0.00012265146159897613,0.00010001068896418811,0.00017887735713248046,0.005440118997441335,4.062560995884046e-05,5.495008223099686e-05
2024-03-06 02:10:27.313,0.0016610408813483456,0.25710406621146575,-10.15183681832284,0.000496879237008764,0.00010033988271478472,0.00017956627448668526,0.02478122784615877,8.750641077816306e-06,3.003211113714721e-05
2024-03-06 02:10:27.390,0.00206562138339449,0.13833628511340598,-9.926278697103063,0.0007699430782991347,0.00021945032575495819,0.001239730289481904,0.01091409436043126,0.004795103351172054,0.042403991349232666
2024-03-06 02:10:27.444,0.3651470525533662,-0.012570492566299978,-9.563080232853915,-0.00015382842221047855,0.0008683123719885297,0.005353235984711778,-0.0370615039921035,0.025974852172007748,0.1645372678976685
2024-03-06 02:10:27.496,1.1327433909569746,-0.04041628620989274,-9.661056666901437,-0.002033990015807167,0.003423901742117943,0.013450906601845688,-0.07576877614289024,0.10196754027498162,0.3240687200634699
2024-03-06 02:10:27.554,1.2888644653597494,0.3951297761566298,-9.959004718894846,-0.0017310307238517007,0.006442251916177185,0.02408497148016714,0.0109925794642606,0.11984719799779706,0.4256999419531644
2024-03-06 02:10:27.611,1.4348427192697033,0.7816679884200957,-10.027486634066499,0.000619091121629316,0.007433957757579741,0.034783104150127434,0.09175306408952844,0.03771921569763756,0.42869780699960397
2024-03-06 02:10:27.663,1.2482573849511085,0.2320881269765138,-9.770113417621904,0.0014442617007421907,0.00666140847808115,0.04577951702669228,0.02899861006682776,-0.03131030014775932,0.44048487488373134
2024-03-06 02:10:27.715,1.0674077132131967,-0.5677518334320923,-9.57946526952765,-0.0004965439473206313,0.004380835716216935,0.057093669124448694,-0.08372019171552754,-0.08771896234326251,0.4525661846819606
2024-03-06 02:10:27.780,0.8015801400127008,-0.4786026953801891,-9.707450964413583,-0.0015129262311947753,0.003207828488849426,0.06854142970378059,-0.04477321539382877,-0.04514011325679714,0.4585554623556142
2024-03-06 02:10:27.831,-0.056518111021794694,0.27726091057759383,-9.795994125683139,-0.001303419574121382,0.0036173295769164424,0.07992569245744818,0.007797208858755841,0.01527697798820663,0.4566818354349943
2024-03-06 02:10:27.884,-0.265915246484694,0.6386627923770668,-9.911648272076565,-0.0021424666444666033,0.0044505913636444135,0.09100632538395381,-0.032835810221497425,0.03510361924717337,0.44481867943634146
2024-03-06 02:10:27.943,-0.07970648788378493,0.6395062211617434,-9.92760816001518,-0.00064948949704747,0.005416551428358537,0.10187487102993219,0.06060501258845337,0.03296354796119726,0.43708381897410586
2024-03-06 02:10:27.997,-0.002463988377094821,0.5427542790632293,-9.798731189467674,0.001852803045816092,0.005675612365356435,0.11280421858960935,0.09821963892753124,0.0011650330449054884,0.44026966106143534
2024-03-06 02:10:28.052,0.2564216783945396,-0.2115442131546979,-9.739536143172213,0.0013773999958521402,0.005033493918601695,0.12391509726060754,-0.023965910847857215,-0.022521588562034893,0.44748304632692004
2024-03-06 02:10:28.106,0.1379739718635822,-0.8708298256549671,-9.802843909761831,-0.0009522066094296855,0.003991996178768244,0.1350813589463649,-0.09946417827720494,-0.03000430342240744,0.449929060756047
2024-03-06 02:10:28.187,-0.02584012859235838,-0.3682594725141983,-9.769259022332532,-0.0020565278567124096,0.0039016948517662056,0.14626812749228052,-0.046124522205759876,0.0016951076283414526,0.4517935589336574
2024-03-06 02:10:28.247,-0.3910209859707902,0.5638370477337722,-9.757505266337871,-0.0011197143184000168,0.004691697094936406,0.15740744517965496,0.0395259770038986,0.02557720257318713,0.45099535055241563
2024-03-06 02:10:28.300,-0.3525616080767782,0.7059392224009844,-9.829495566613717,-0.0009474754694033729,0.005332916246629309,0.16828132316071817,0.008453579256506749,0.024189275091624135,0.44091239167746665
2024-03-06 02:10:28.355,-0.3098372055492853,0.3221179128356326,-9.869002175220185,1.2770294735506168e-05,0.005804742035505751,0.17916099155283963,0.03850733050144796,0.012563895202854477,0.4421279155712749
2024-03-06 02:10:28.414,-0.16440333366899748,0.009614457938273108,-9.9180932102513,-0.0002143755766854588,0.0055898638374364835,0.1901686230343876,-0.012961540448529,-0.006488045765709863,0.44794216789174035
2024-03-06 02:10:28.502,-0.11318051300737433,-0.16815731561851166,-9.810961875730142,-0.0009512864082243231,0.0048868544548682676,0.2012016481332989,-0.03652619821930885,-0.022016487527712136,0.4498013415116159
2024-03-06 02:10:28.561,-0.2031165340599201,0.08940301389067554,-9.69399232939481,-0.0012188106698814176,0.0047461413480586,0.21222415433292358,-0.013819357116124961,-0.0034804455871173577,0.4505685331411804
2024-03-06 02:10:28.616,-0.5020889986361945,0.37698770566948414,-9.704626170046689,-0.001040879690397871,0.005096483305765108,0.2231695319454462,0.007595685031971601,0.012199968006633899,0.44863291892109614
2024-03-06 02:10:28.675,-0.5150607076770662,0.40609981078145524,-9.878609419046827,-0.001092109857825946,0.005649055968094441,0.23384227471823738,0.00041303154422681,0.02207530128649167,0.43854873698060715
2024-03-06 02:10:28.729,-0.56866989389326,0.20534367329322048,-9.888380575638815,-0.0008802414371946545,0.00590656726705593,0.24428297286709855,0.008088548523831614,0.00824546152346027,0.43016458715135203
2024-03-06 02:10:28.816,-0.4111453549997759,0.1421330814784978,-9.873455200766944,-0.0013200305506092661,0.005642207383779126,0.2550048550156618,-0.022207655476128685,-0.00592737318634059,0.44276683105721126
2024-03-06 02:10:28.871,-0.2419635393050122,0.20313845215359605,-9.837806782007082,-0.001715295099590495,0.00515266532744206,0.26580472083866896,-0.022705036553940044,-0.015070330287570847,0.44728197061640823
2024-03-06 02:10:28.926,-0.38499257124762876,0.3925848754967296,-9.728450797357604,-0.001435324807590198,0.005048648430123924,0.2765979071774848,0.007335899158736272,-0.0070197497300866175,0.4485753912866237
2024-03-06 02:10:28.982,-0.5293778045177292,0.5851567168436081,-9.73270135338626,-0.0010007993233969608,0.005210075037126859,0.28734999347209556,0.016118969658784423,0.0015992096096497873,0.4483706450244273
2024-03-06 02:10:29.035,-0.5764921787824937,0.368529385699659,-9.846393482604933,-0.0012111591429906164,0.005498779501939665,0.2979825063933346,-0.007239474372769399,0.013652166077810701,0.44476404859425217
2024-03-06 02:10:29.088,-0.6367557961730793,0.11937669457044786,-9.844767486599142,-0.0018164330325814093,0.005493255663270824,0.30848659944567314,-0.025727015994859916,0.006946995005320515,0.4408031101041126
2024-03-06 02:10:29.145,-0.5279955596287981,0.22512435411327328,-9.867840443495789,-0.00161865364129036,0.005273515702111301,0.319067141337745,0.0023551507917668794,-0.010776469929004825,0.44573735705430373
2024-03-06 02:10:29.198,-0.39049689403936116,0.4463795389604229,-9.858985801405948,-0.0015495010527374648,0.005148935399908136,0.3296661846681177,-0.0013775477793060847,-0.005540754488411591,0.4481882272324913
2024-03-06 02:10:29.255,-0.5905734283786781,0.4076052656393791,-9.764929583285555,-0.001909896948002593,0.005013651783202648,0.34016747160621447,-0.01778408136727166,-0.00043662437934099274,0.4457111857936984
2024-03-06 02:10:29.312,-0.6326161897616221,0.47768897989332865,-9.750078807348368,-0.0016095900154928983,0.005228173348068139,0.3506597224182562,0.01177042949012757,0.004087764412708562,0.4472973559154788
2024-03-06 02:10:29.400,-0.5820338497904816,0.5114677890461337,-9.855321047248903,-0.0006794556631754777,0.00519338689557844,0.35984046427575367,0.032348007483132706,-0.013894032462448202,0.3930372822261252
2024-03-06 02:10:29.472,-0.9851516629636895,0.19422594437559773,-9.83887538147844,0.0008390360507675154,0.0037017990268989817,0.3654092656041963,0.03444655143749837,-0.07702067030276533,0.2392597639762786
2024-03-06 02:10:29.532,-1.7915270837322983,-0.3785141549383086,-9.711566199278575,0.0011764020695360848,0.00018349291403431901,0.3672293428648971,-0.038844032737089196,-0.13584051040097767,0.07817582178570717
2024-03-06 02:10:29.587,-2.1932884125432843,-0.40725953834342166,-9.702235558243455,0.0011554846293089682,-0.0038996325670458474,0.3647297236682246,-0.06119099428277187,-0.1515678138703208,-0.1073599986109993
2024-03-06 02:10:29.647,-2.933810570161474,0.26207453403314457,-10.087124431092901,0.0017975793062943793,-0.006490910705326282,0.3580868100365177,-0.015797644903609274,-0.10567581069935154,-0.284775769825913
2024-03-06 02:10:29.723,-3.597920810809395,0.7022783932590875,-10.126957002585003,0.002436656675358097,-0.007096243587439432,0.3487610166907914,0.012207784648293037,-0.031641435244477,-0.3987908049917657
2024-03-06 02:10:29.780,-3.347303192631842,0.48473940140408517,-9.522730171997809,7.138402636819802e-05,-0.0068941520689850926,0.3385367147675655,-0.0886687457577515,0.04160570364276296,-0.43480915672350384
2024-03-06 02:10:29.832,-2.4908615315482594,0.7736496696424362,-9.315805998532003,-0.0005923323885572157,-0.00535760311074337,0.32806637961945023,-0.0063178169184720055,0.06788690969750658,-0.4441510350609785
2024-03-06 02:10:29.887,-1.6396253726017718,1.1988292402678251,-9.829972403749272,0.001336570910499705,-0.003994216454236945,0.3174045577109591,0.08887899438718642,0.026236453492396165,-0.4511003043210111
2024-03-06 02:10:29.965,-0.9090251112202828,0.881120274638647,-10.173120425241867,0.002476140836982971,-0.004005843741517134,0.306698051627755,0.04100842952403334,-0.015383391942813459,-0.45090524027148776
2024-03-06 02:10:30.042,-0.7749810197559702,0.032936818336027136,-9.918712539734003,0.001488186539139247,-0.00489251727616025,0.2960158527428146,-0.050781598989995784,-0.0215872834580985,-0.4478751946927234
2024-03-06 02:10:30.097,-0.9402216671313578,-0.25240502401939013,-9.567566273784378,0.0011788459860758633,-0.005526351855920728,0.285230571312297,-0.02185968320693836,-0.02031045966539554,-0.45074693191875564
2024-03-06 02:10:30.151,-0.942124937681426,0.0719706650137632,-9.636078317239887,0.0012176709795937643,-0.005633531321482308,0.2744635588510622,-0.0023112537832249693,-0.004340377392286906,-0.448597211973299
2024-03-06 02:10:30.207,-0.9186483337766816,0.35703608205417153,-9.926828736189504,0.0018429382697876821,-0.004790263006752719,0.26383532731496834,0.03104996027340188,0.025381475499876936,-0.4416553389249729
2024-03-06 02:10:30.259,-0.8568686797397187,0.2844847805072885,-9.97040876327935,0.002076886771365769,-0.003926558754830821,0.2530262685969341,0.016198367335079487,0.030433150410965504,-0.4477206977173561
2024-03-06 02:10:30.316,-0.6072833932969225,-0.10530016743432867,-9.730504456669346,0.001953981950183939,-0.003898825762641807,0.24215042754349758,-0.006393418245403157,0.0019220934343453402,-0.4489986273084855
2024-03-06 02:10:30.371,-0.28941751014413963,-0.16818331534231631,-9.61162737552729,0.0019443446358522675,-0.004400105543942106,0.23115772243663713,-0.007376440323599043,-0.01972064893994792,-0.4525050283617022
2024-03-06 02:10:30.427,-0.27288932337671934,-0.18757691778226493,-9.825692697325415,0.0005755649005127894,-0.0053327306947704685,0.22038704960510214,-0.06424231529186647,-0.023328565412848223,-0.4419414051164061
2024-03-06 02:10:30.480,-0.23491890218028427,0.03609263887037562,-9.955251209700656,-0.00031617658329851706,-0.005738551156419939,0.20992781046197792,-0.0407340034291723,-0.0072864170206762,-0.4281883777403863
2024-03-06 02:10:30.532,-0.23672102873886705,0.6426337364601712,-9.839562790638112,0.0009643771934447167,-0.004895669075903762,0.19962009250081342,0.055056609130177445,0.022257805270711868,-0.4215797848690672
2024-03-06 02:10:30.591,-0.33127559754526664,0.7807028109060197,-9.74821625541986,0.002321887924981485,-0.004064555566346088,0.18911713204361671,0.057935681048740265,0.021118690373905652,-0.42862477359151663
2024-03-06 02:10:30.645,-0.13471522776365596,0.15675998676066816,-9.737406301677487,0.0021225512746788273,-0.003893902657217852,0.17827156790026888,-0.008406570875963928,0.007626412817983607,-0.44132082819079493
2024-03-06 02:10:30.697,-0.043732892041674354,-0.35469573583793124,-9.832835754868926,0.0012861006697683765,-0.004375395615379353,0.16715754034782682,-0.03840296273438379,-0.013194226035463934,-0.45117988656323055
2024-03-06 02:10:30.751,0.05395357182563081,-0.21667913559590382,-9.837443286823476,0.0008447915879756854,-0.005037574899570953,0.15627592355499573,-0.024084036196945567,-0.02314758088701923,-0.4409532021599702
2024-03-06 02:10:30.809,0.13313769545404008,0.037305355046342026,-9.814300573869302,-0.0005577244216673771,-0.005550897099374407,0.1459253820524486,-0.06087594670212076,-0.010908282750946213,-0.41852844958928315
2024-03-06 02:10:30.862,0.22940901619162427,0.5386883981077855,-9.790487960619027,1.4696271237268144e-05,-0.004915618675460825,0.13559707440849975,0.024331061655679023,0.022102049839488363,-0.4174296576044102
2024-03-06 02:10:30.917,-0.05849348685409145,0.8888472591760008,-9.882332846523285,0.0014031455621370433,-0.004200665024304133,0.12474487599722951,0.056995001972591504,0.02045409008522337,-0.43812566298580186
2024-03-06 02:10:30.972,0.03517014389515171,0.47028113644618125,-9.821713528682114,0.0017411151373177497,-0.00402952854682836,0.11377025522864725,0.012400288915419192,0.004574287117656693,-0.44220701271635915
2024-03-06 02:10:31.026,0.3201407039168515,-0.04413623182247595,-9.734005484325552,0.0014597549833245491,-0.0043070692906462035,0.10260654844426167,-0.0144432914775239,-0.010169279943498864,-0.4491187696379504
2024-03-06 02:10:31.079,0.28488325290005106,-0.18827454820670939,-9.751938565309285,0.0007661581878309991,-0.004798587937048651,0.09164590646926926,-0.03175224667095641,-0.016817502113676792,-0.44036543035621106
2024-03-06 02:10:31.135,0.3846952481668953,-0.09916390374315988,-9.845696760219955,-0.0008556694303269016,-0.005124157600597854,0.08102905489046426,-0.06793134617122741,-0.006448570513463285,-0.42594689672153485
2024-03-06 02:10:31.190,0.3740655600857282,0.3977466564065968,-9.868872721388463,-0.0007333197814276877,-0.004797034694744434,0.07008808426475814,0.0038684937465784802,0.013148262607360493,-0.43891057962168634
2024-03-06 02:10:31.246,0.06877761007504712,0.9251503089080417,-9.868200865315046,0.0008725897582132603,-0.004402452240052406,0.058876242489983764,0.0631815337210584,0.011000677123986502,-0.44972540361469127
2024-03-06 02:10:31.298,0.31848362793199253,0.6789622644117796,-9.802358690723503,0.0010134317088963778,-0.004368308978195458,0.04771442017202642,0.003726005530654401,0.0007053753657649286,-0.44713228565635593
2024-03-06 02:10:31.349,0.49419163896467205,0.16007492671655837,-9.714716956531102,0.0008351318410547444,-0.004573760018627839,0.036526675709111604,-0.009581527974512305,-0.008132768275868259,-0.4478661816967222
2024-03-06 02:10:31.405,0.4426367187386313,0.0622467850455213,-9.803857188674884,0.0012889729132820125,-0.004969476246842924,0.02533522108207666,0.015315186250532653,-0.01696449727973008,-0.44792992032126056
2024-03-06 02:10:31.483,0.4741787565185301,-0.013870841281103989,-9.881959386188603,0.0002737343456179305,-0.005207348890521618,0.014302146446643467,-0.04313818475155501,-0.008533054208640282,-0.4412010701666036
2024-03-06 02:10:31.540,0.42432322065009803,-0.023267755373003404,-9.836168306279385,-0.0009296053157988383,-0.004201049902752003,0.004420143562000974,-0.049205990425639265,0.04133564344316228,-0.3950061723407735
2024-03-06 02:10:31.591,0.6013292577301225,0.5206311310853924,-9.794916119854225,0.0009449348089095429,-0.0016930096738903759,-0.001621196203280125,0.07501437809621825,0.09976372828956923,-0.24206327925170856
2024-03-06 02:10:31.646,1.704970631326081,0.5209912094794664,-9.685948403567664,0.002365950507302278,0.001341517905226975,-0.0038580079763495356,0.05676530996564466,0.12126087800907702,-0.0898562929670472
2024-03-06 02:10:31.699,2.2592624274805337,-0.14270909937036777,-9.70658325121203,0.0023983495085551547,0.002855411227260192,-0.004259599198045352,0.0011088569983661379,0.06052189313725787,-0.01620745368443981
2024-03-06 02:10:31.752,2.280482704467496,-0.4582494337850054,-10.215727499684224,0.00026453660557118093,0.00291409105198798,-0.004490451696361594,-0.08533453640300699,0.0019814777554801343,-0.009478809193962054
2024-03-06 02:10:31.806,1.6049699561172466,-0.29073654515429975,-9.74994004029134,-0.0011354164014704894,0.0018314491032413486,-0.00459315331204918,-0.05579565376187889,-0.04355179853667447,-0.004320221933758951
2024-03-06 02:10:31.860,1.3856076966822217,0.4894753540044249,-9.449046401398848,-0.000615749544706062,-9.742565303976365e-05,-0.004603104939211028,0.021140872153977315,-0.07705849465435952,-0.00040648456164009146
2024-03-06 02:10:31.913,1.1633209506241897,0.9772498424027656,-9.870071426617315,0.0005676970042141198,-0.00045861567003574954,-0.004581384952600105,0.04740426474732606,-0.0142290552223276,0.0008721507876801948
2024-03-06 02:10:31.965,0.3640568671357816,0.7338921321872633,-10.109737966585312,0.0016796515589196231,4.090853618094498e-05,-0.004555989847249497,0.04438618185602981,0.020186162883201443,0.0009614642136666728
2024-03-06 02:10:32.019,0.552527242639205,0.140335475472166,-9.924140380573311,0.0011905469727466194,0.0008411368403218121,-0.004556336252763327,-0.019709773916079282,0.03191962990870046,-5.262908248286579e-05
2024-03-06 02:10:32.072,0.6917371295228077,-0.2226819847880106,-9.515517684359661,-0.00015613064988842206,0.0013737147230371437,-0.004568553303655028,-0.05396288840842278,0.021057587789376303,-0.0005309314780328093
2024-03-06 02:10:32.128,0.8186241281220404,0.09276030828521986,-9.607782037931603,-0.00012283399793526926,0.0010022507124542966,-0.004584643558630905,0.0014003806527417145,-0.014852249310116519,-0.0006435051792627923
2024-03-06 02:10:32.181,0.9492607627415108,0.5121872444320009,-10.014780507652269,0.0005170964236293175,5.1303277178012035e-05,-0.004580599261201479,0.025771374638847277,-0.037920039801604036,0.00020725614612735312
2024-03-06 02:10:32.233,0.779295943450096,0.4080297944629383,-10.021217529585497,0.0005753115066130556,-0.0006325505945024421,-0.0045693700297801355,0.0024541761462494554,-0.027342938819952263,0.00046507357552953254
2024-03-06 02:10:32.286,0.4751177000684522,0.180942721045037,-9.707775716579928,0.0006053634106945675,-0.00039939853798892937,-0.004557744689505214,0.0011596324510771228,0.0093317590719127,0.0004586407298134168
2024-03-06 02:10:32.344,0.2534128867098529,0.1336890871409388,-9.684242686353272,0.0005820132946351935,0.0005610151714420732,-0.004542227489266756,-0.0011094153849701346,0.0384122474674918,0.0005988653714832609
2024-03-06 02:10:32.396,0.30699242048979414,0.10649315976343243,-9.797864966382168,0.000244807462860605,0.0014678117075517555,-0.004550146607196055,-0.013652352250823754,0.036210163540229115,-0.0003332288094533268
2024-03-06 02:10:32.448,0.5292154771834711,0.16201472893857755,-9.866809283190152,0.000193715103499464,0.0013889491664544759,-0.004551896081610679,-0.0020292216585991374,-0.0031637848776000094,-7.234509626420963e-05
2024-03-06 02:10:32.499,0.7687826392167112,0.2779057615831785,-9.859165080993046,0.000675160483617638,0.0005353583036832999,-0.004575705000433703,0.019413573433389928,-0.03405624618041644,-0.0009023636156950018
2024-03-06 02:10:32.550,0.6430009307404538,0.18166372020713775,-9.768082016918637,0.0006231703267273029,-0.0003623323516604639,-0.004574687981735371,-0.0019152509429520498,-0.035916735507327324,6.211191248328769e-05
2024-03-06 02:10:32.610,0.37662682837530204,0.01495316466306206,-9.777812660980555,0.0004308671212904796,-0.0004185976435698734,-0.004570130274373097,-0.007681675751761272,-0.0022856973439412073,0.00018607535361463403
2024-03-06 02:10:32.660,0.09478029082874317,0.04233618473248051,-9.841324573468833,0.00040696937499759626,0.0003179175248214661,-0.004557833948196901,-0.0010906884443011506,0.029456128355519764,0.0004803765405561539
2024-03-06 02:10:32.712,0.11637300856140065,0.11092937120959005,-9.830081089088566,0.00022263080986563002,0.0012811594114372445,-0.00455414526414604,-0.0075492475463255675,0.03849571246274796,0.00013665987323500204
2024-03-06 02:10:32.763,0.28461043942707365,0.15565943621899495,-9.766094760903313,0.00014981256546023436,0.0014774153666226029,-0.004563490419500583,-0.002947892511210864,0.007836845292400852,-0.00037875845387858276
2024-03-06 02:10:32.815,0.5602478598499291,0.19343141493503735,-9.793017246347032,0.0006246604618019981,0.0009159900651448834,-0.004568700646448023,0.019096395370568876,-0.02237021662829677,-0.0001662159815255008
2024-03-06 02:10:32.867,0.5123077095461142,0.1500955411405907,-9.847412815114433,0.0007955395630353506,-1.2812264388717173e-05,-0.004563478363780593,0.007004856255033473,-0.03712029910546036,0.00024491688620086055
2024-03-06 02:10:32.920,0.35335462666481177,-0.016819633785063567,-9.834543986654147,0.0004180521092036335,-0.00033616809761354775,-0.004558366605641316,-0.015040247520956356,-0.01300291816933104,0.00021009790218670568
2024-03-06 02:10:32.980,0.04254435259841897,-0.05502198448678599,-9.783537221178042,0.0003219768667155581,-2.9900841288702058e-05,-0.0045511865969248165,-0.0038988051105823805,0.012233137612841017,0.000284582840247574
2024-03-06 02:10:33.034,0.03547626124353677,0.07150532589158125,-9.79353832130278,0.00029161201915308435,0.0008419736396817182,-0.004556936988201333,-0.001373097140015102,0.03486902655743458,-0.00024007652281458024
2024-03-06 02:10:33.089,0.06810778626744557,0.12492795183403599,-9.792704321976824,0.00021443145153945864,0.001275582571024986,-0.004563011118101366,-0.0031659088234449496,0.017330067220952924,-0.00024933332180642685
2024-03-06 02:10:33.144,0.36084250055442796,0.15604886184565134,-9.823961555005946,0.0004380606346568198,0.0010709073960973102,-0.004565905089782807,0.008982550207302717,-0.008146153580019872,-0.00010073428542994651
2024-03-06 02:10:33.195,0.3955847730512512,0.13023614737771588,-9.824130869441968,0.0005292259478189942,0.0003633001690698973,-0.004574275853449609,0.0037759355333034923,-0.02828752218849991,-0.00031577480121070195
2024-03-06 02:10:33.248,0.32454286906711166,0.036468354751811274,-9.81700681087808,0.0004937537201418595,-0.0001391410676588439,-0.004569493407158047,-0.001326912578235531,-0.020103833133479868,0.00020076727488510583
2024-03-06 02:10:33.304,0.08611752810120216,-0.019702623259081703,-9.812238066993523,0.00048743941749423807,-5.263399531606763e-05,-0.004569050703572465,-0.00026838036652781377,0.003459100900594454,1.606023286551138e-05
2024-03-06 02:10:33.358,-0.03063285912524367,0.017085045062913747,-9.804890304757837,0.00045745825403392914,0.0005924970170748467,-0.0045706658627729605,-0.0013170905263183378,0.025799461087799035,-7.630215342192474e-05
2024-03-06 02:10:33.412,-0.00908388858588569,0.042027153727007244,-9.795060754243194,0.00032405928559881047,0.0011589891789975716,-0.004573254025156551,-0.005439338026057145,0.022635034922272458,-0.00011405814924320945
2024-03-06 02:10:33.468,0.18568622899940454,0.07751238877244124,-9.797159768962162,0.00027320534951982145,0.0011701458545408335,-0.004571321581188607,-0.0020362661392349995,0.0004369800425849799,7.481897393893738e-05
2024-03-06 02:10:33.520,0.31331042522440505,0.11249832034526455,-9.824554621193291,0.0005163997653358519,0.0006739577244603043,-0.004569628489750501,0.009818359696301291,-0.019802812929023778,8.945657702687204e-05
2024-03-06 02:10:33.578,0.27591073084371415,0.0799541576493303,-9.79230133871793,0.0006352328284405389,0.00010237459466304986,-0.004569433538171501,0.0048577550692792786,-0.022841355754562837,2.561029040013553e-05
2024-03-06 02:10:33.631,0.12331630201509092,0.0016903420252888993,-9.823074004634494,0.0005162582628561749,1.7489804196034266e-06,-0.004568435052343718,-0.004740541783475552,-0.0040467074790107695,4.154335915208411e-05
2024-03-06 02:10:33.683,-0.043907592868863386,-0.027486668627294618,-9.84079353336201,0.00046565761638199315,0.0003506680777843459,-0.004569930092313907,-0.00208774104862114,0.013947342651707457,-6.628978842597021e-05
2024-03-06 02:10:33.736,-0.033613129057437574,0.014232850896136002,-9.809930901689011,0.00033408036502503304,0.0009114201320943509,-0.004570905424493443,-0.005365492507292741,0.022405786169268964,-4.8353647991177713e-05
2024-03-06 02:10:33.787,0.047876594089477975,0.0634898577885048,-9.776722641090998,0.00023993480307163068,0.001097742725534326,-0.004570746915774871,-0.003799851804948025,0.007435617052843926,1.095370269255177e-06
2024-03-06 02:10:33.842,0.2182712602016197,0.10934377195520106,-9.797596372964405,0.0004221164061114976,0.0008594254787180779,-0.004565282660408359,0.007330568097042023,-0.009499190265099275,0.0002306316071197262
2024-03-06 02:10:33.892,0.2175677064203629,0.11571628415989178,-9.82953123626663,0.0005669705984643621,0.0003389908190686935,-0.004568898453377019,0.005889196843819606,-0.020790796606296003,-0.00012776127073867898
2024-03-06 02:10:33.944,0.1570766768025602,0.022948292827594155,-9.831140561599128,0.0005186163208359526,9.33151516783384e-05,-0.0045627092958275975,-0.001889276256188018,-0.009835632124237336,0.0002520347514870205
2024-03-06 02:10:33.997,-0.018581615431315836,-0.021143974386884184,-9.788885247676495,0.0004535056901489126,0.0002497923698609817,-0.00456513443136168,-0.0026329313794109226,0.0062470958124937175,-0.00010008343648503522
2024-03-06 02:10:34.050,-0.04988402124113861,0.018221491926306777,-9.789462667645331,0.0005140528288759437,0.0006853145006817285,-0.004569677819073238,0.002342464368779983,0.01743166716651199,-0.00019009625975876268
2024-03-06 02:10:34.104,-0.009514620890612094,0.02267143264908291,-9.823694451704233,0.0003816746506791433,0.0009806621507332295,-0.004570746725672796,-0.005349007642108246,0.011789571651231632,-5.0916066895398114e-05
2024-03-06 02:10:34.158,0.12263219686761309,0.0476280892259371,-9.826776104825008,0.00030763822293996456,0.0009136177404692505,-0.004565501953687068,-0.002949360285198635,-0.002695222668461969,0.00020772987613325327
2024-03-06 02:10:34.210,0.17913058276925262,0.0829679748377025,-9.802823979459681,0.000509988540384507,0.0005414397126516007,-0.004561898511592798,0.008161817272425965,-0.014849937112996488,0.00015917821639267792
2024-03-06 02:10:34.287,0.14793051293461476,0.06816666795208579,-9.796303045366468,0.0005668253187690833,0.00023023895254416232,-0.004560074224730985,0.0023302173874146037,-0.0124374864773028,8.129239564204868e-05
2024-03-06 02:10:34.346,0.027900479420100384,0.014626850212268777,-9.800338931551869,0.0004773065792087458,0.0002371478211058333,-0.0045596955839014835,-0.00358197652709376,0.00026003021682377716,1.4196230650901208e-05
2024-03-06 02:10:34.399,-0.049979186305688,0.003805757752386951,-9.833776111227849,0.00043170902168662543,0.0005161429650304397,-0.004567829279824327,-0.001874596831473366,0.011151233233728899,-0.0003306031596385671
2024-03-06 02:10:34.461,-0.03236894109210372,0.0313878251843582,-9.820616617005834,0.00034935774381136646,0.0008404965518856448,-0.004568847618560849,-0.003353240286180799,0.012958949120302566,-4.698318615037984e-05
2024-03-06 02:10:34.515,0.04239647295061022,0.0689166015953555,-9.789385740404322,0.0003341585633647868,0.0009034210289719095,-0.004567860948191447,-0.0006194952514009193,0.0025141887792133892,3.810675001031005e-05
2024-03-06 02:10:34.592,0.13393115278229697,0.09064709726412365,-9.79604078494191,0.0004711412375227653,0.0006852977795129066,-0.004560681992062132,0.005518904665486181,-0.00869967496691066,0.0002962486421002621
2024-03-06 02:10:34.645,0.12955748810235468,0.0729435343515405,-9.823867957091643,0.0005051456814847929,0.0003795906986418881,-0.004557587122379968,0.001415884673915855,-0.012221890125859121,0.0001309486984476644
2024-03-06 02:10:34.697,0.06097131082773036,0.02060517720011851,-9.828294439946287,0.0005133450291576558,0.00027170994066935987,-0.004558550425051437,0.00034764766266679587,-0.0043137100611366575,-3.618504913851131e-05
2024-03-06 02:10:34.748,-0.02746770047954379,-0.0030467941913995857,-9.805040992743251,0.0005329363626553575,0.0004200719869315606,-0.004558507382210657,0.0007565934147410699,0.00593799306236475,-1.235321509316108e-06
2024-03-06 02:10:34.802,-0.041830320711099676,0.01198479400191547,-9.776124732026494,0.0005067512684750959,0.0006989996584237847,-0.00456458449566513,-0.0010980772239168807,0.011152094070808125,-0.0002491928635538941
2024-03-06 02:10:34.853,-0.0013722410388582686,0.014605990042779718,-9.805557411086347,0.0003774054599676127,0.0008403723454675138,-0.004564361950583314,-0.005199594520129308,0.005631235651679481,3.1423305413433826e-06
2024-03-06 02:10:34.906,0.08064287047864739,0.051960241841178076,-9.846676977183181,0.00039661681733849184,0.00073909706752805,-0.004561461271866037,0.0007868494178631309,-0.0040474164716197735,0.00011829583220833673
2024-03-06 02:10:34.987,0.10746117676530731,0.07700783424146981,-9.825066103526977,0.0005556009776056429,0.0004989128852123247,-0.004555974675628178,0.006403013058974301,-0.009578135286287223,0.00022952323414390438
2024-03-06 02:10:35.047,0.0716620163598444,0.04896520589940436,-9.790184535738629,0.0005336217790544902,0.0003350476457684873,-0.00455456431109119,-0.0008493162672861032,-0.006558516870920765,5.9493648494495924e-05
2024-03-06 02:10:35.098,0.003078536191630088,0.00716842807890863,-9.795434400842382,0.0004484840062147296,0.0003859437117404999,-0.004552388427714178,-0.0034147814657974037,0.0020203492501647347,8.49855923591551e-05
2024-03-06 02:10:35.153,-0.03965664593940466,0.001993201472857478,-9.819300192609141,0.0004576407901012104,0.0005940409713420786,-0.004558911607445599,0.00032853213497049174,0.008325353045417044,-0.00026460933044167463
2024-03-06 02:10:35.212,-0.019360138857278896,0.03678864966673205,-9.817995409744078,0.00039660933611055077,0.0007663188146177126,-0.004560842521163616,-0.002472586403587984,0.006879882810049251,-8.14325308485188e-05
2024-03-06 02:10:35.263,0.0409848461091382,0.04203323751867739,-9.801804740082433,0.00036572294070293674,0.0007571099894876483,-0.004558621642410376,-0.0012338302187812663,-0.00037395212526986933,8.802727246170689e-05
2024-03-06 02:10:35.315,0.08459263534153634,0.0733326006141199,-9.802019037396676,0.00048005211494273807,0.0005879724431297458,-0.004555366298204503,0.004603882603940513,-0.006744520950563222,0.0001369399674314683
2024-03-06 02:10:35.369,0.07259146633167189,0.05017514720716746,-9.816772862658448,0.0005373694424743941,0.000415323451189673,-0.0045519213973836,0.002324070068386099,-0.006895369292412332,0.00014287178665639647
2024-03-06 02:10:35.420,0.020514853625747752,0.016924562183823277,-9.82341691759018,0.00043492022668854423,0.00038871835778979755,-0.004551734675144171,-0.004093085319889573,-0.0010828437463562858,6.239065003923995e-06
2024-03-06 02:10:35.480,-0.025178695532365784,-0.010687994146637897,-9.80880297697247,0.000394068671697901,0.0005197384337895514,-0.004552580570386068,-0.0016578810124593195,0.005233297580314538,-3.654152409884269e-05
2024-03-06 02:10:35.563,-0.025860963477895932,0.0351284299226362,-9.79309687442338,0.00040480868093638664,0.0006872167176756687,-0.004557278127210731,0.00039922905228117843,0.006700943017524404,-0.00019040688970384413
2024-03-06 02:10:35.614,0.01016149214531309,0.048734234455790414,-9.802493546225904,0.0003698207654077845,0.0007419261816399151,-0.004557706216298434,-0.001409461451197024,0.0021819716433016923,-1.8899152890761225e-05
2024-03-06 02:10:35.679,0.05635699613486598,0.04992957801048553,-9.82148442333964,0.00037975989099165315,0.0006425042003632992,-0.00455589772777122,0.00041563882090825947,-0.003974999254496412,7.415913591008308e-05
2024-03-06 02:10:35.732,0.06833649593426784,0.056836024334002526,-9.820226020336593,0.0004729666150963866,0.0004843718831915846,-0.004553934881908106,0.003757008574630645,-0.006308203522458648,8.39136437196062e-05
2024-03-06 02:10:35.784,0.03745282369351456,0.04405402623826606,-9.807986300245577,0.00050856919528217,0.0004116345778503018,-0.0045535430662706974,0.0014373311404945232,-0.002902968382433439,1.7845739017446057e-05
2024-03-06 02:10:35.837,-0.007774048259769283,0.0056401865599099415,-9.805395454098313,0.0009796843048736987,0.0004833267942506534,-0.004551627727119515,0.01883131763881929,0.0029535518261444758,8.145284642948274e-05
2024-03-06 02:10:35.892,-0.027513044654514266,0.13924631469126367,-10.023767863202691,0.0008941330569831264,0.0006245955979137503,-0.0045541243656289825,-0.00344766893230425,0.0056350259144066816,-0.00010657040106346678
2024-03-06 02:10:35.944,-0.0010115902543209,-0.1498271479935529,-9.499122868799356,2.112984860994877e-05,0.0007188712008438239,-0.00455494501768882,-0.03493691017662724,0.003611963744503022,-5.479316739460648e-05
2024-03-06 02:10:35.996,0.03628062595933496,-0.16604602256248882,-9.530303034889087,-0.0004494786634460096,0.0006815789947849217,-0.004554633428057625,-0.018817355453026936,-0.0015774131796155548,-1.792721133792952e-06
2024-03-06 02:10:36.046,0.057764860988107014,0.19916885321309183,-10.157153924913285,0.00017137826802768406,0.0005536478553622095,-0.004553013830217786,0.024857289640308356,-0.005004063271316802,8.255081864922292e-05
2024-03-06 02:10:36.098,0.04179518911522614,0.28476298978470155,-10.132411386116425,0.0007720589841280263,0.00045210159178523854,-0.004552315109273573,0.02404546126538157,-0.003952375693108268,4.4281479999785855e-05
2024-03-06 02:10:36.151,0.005427666987982792,0.014917981316942445,-9.64495605612848,0.0005301721489127406,0.0004604100914340615,-0.004548650316500047,-0.009676954851775915,0.0002883663424383817,0.000142060042814495
2024-03-06 02:10:36.209,-0.01877366107197697,-0.17098794075566345,-9.503326206775721,6.0401862714061126e-05,0.0005680554278367288,-0.004549755221509869,-0.018810174566285743,0.004220295605160831,-5.313117464192274e-05
2024-03-06 02:10:36.262,-0.010557329140878247,-0.008046846032595124,-9.802394732905428,1.4886261299969319e-05,0.0006714707113615188,-0.004551592204781772,-0.001839375886166486,0.004128285068058249,-7.458567050375131e-05
2024-03-06 02:10:36.316,0.019373828661829223,0.1630999372375926,-10.072877059023147,0.00030001998983060447,0.0006819740173131208,-0.004551288828856683,0.01140330796052582,0.00047204744903657416,1.964322394255714e-05
2024-03-06 02:10:36.373,0.04417412773641477,0.15027246363585695,-9.911315883065472,0.0005622580858850969,0.0005958938496697773,-0.00455094984146891,0.010505076827628006,-0.003395417804204525,2.2627404398306104e-05
2024-03-06 02:10:36.425,0.04432591217448459,0.023497625418585823,-9.639848962768635,0.0005871318745227325,0.0004969275716836171,-0.0045505672568310505,0.0010129482849512675,-0.003954072753318572,1.822958162797081e-05
2024-03-06 02:10:36.477,0.018539222066290374,-0.09900114949210909,-9.682650124826322,0.00028306993927515174,0.0004713547460843109,-0.004549752016616644,-0.012157712205444027,-0.0010782403205522972,2.6865263897824465e-05
2024-03-06 02:10:36.557,-0.007659097013867101,-0.06750126456137327,-9.90125862419215,6.703660646037176e-05,0.0005350466255226563,-0.004550103144239352,-0.00865282622156781,0.0025083324636384365,-1.8295898593464395e-05
2024-03-06 02:10:36.611,-0.009787657417154495,0.0618291232704322,-9.931067557554277,0.00019228086397757603,0.0006308159962266573,-0.004553012207878806,0.004992360840354875,0.0038535093662744337,-0.00011443414604824786
2024-03-06 02:10:36.664,0.006647731063666372,0.12985627274100445,-9.77133680289781,0.00039367380210870995,0.0006707418778663394,-0.00455280933956473,0.0080483560311158,0.0016337023844427128,1.254521792077307e-05
2024-03-06 02:10:36.715,0.03190736104776986,0.0609111823168627,-9.704667427634785,0.00036115573431459626,0.0006264950189138303,-0.004552823689938577,-0.0012926512332058439,-0.0017757787213638207,-7.996417100710432e-07
2024-03-06 02:10:36.770,0.04039937013220269,-0.011784635157309107,-9.809738490454235,0.00032299386125509945,0.0005408017590431901,-0.004551937570605363,-0.0015108729742322178,-0.0034346339764335663,3.56085004602122e-05
2024-03-06 02:10:36.821,0.02597735921732091,-0.00689813135955045,-9.894657223832311,0.00027855113975255516,0.0004917415936178111,-0.004552052957040961,-0.0017687555850001788,-0.001970480013738227,-5.023133905561851e-06
2024-03-06 02:10:36.879,0.0018786097388251482,0.004602394514808611,-9.836281834495837,0.00023671612713853268,0.00051599002987973,-0.00455296236815621,-0.0016777792569703026,0.0009623013866504853,-3.7429772561710226e-05
2024-03-06 02:10:36.934,-0.008642344310976305,0.03233087655785521,-9.750013521638989,0.00025107341481176083,0.000589621660249237,-0.004553237444130346,0.0005608827337935392,0.002947847116756429,-1.1453400027545126e-05
2024-03-06 02:10:37.008,0.0006447433327856963,0.05544078695007587,-9.76745914841032,0.00028334935297449004,0.0006424646622927977,-0.004554982130723586,0.001281444942380795,0.0021195575453142,-6.963305069375566e-05
2024-03-06 02:10:37.064,0.02236652379172543,0.029755581495960096,-9.841304363769924,0.0002445541485227418,0.0006312265597971895,-0.004554865254061674,-0.0015497472868254453,-0.00045658706748632973,3.790984161243566e-06
2024-03-06 02:10:37.116,0.033322332214788294,0.007697579847446459,-9.85237099000167,0.00019310790743418292,0.0005686313223432375,-0.004554381004447012,-0.002046434874628254,-0.002513153684955168,1.8563846784602058e-05
2024-03-06 02:10:37.171,0.02896599627300003,0.05507524849576859,-9.799334872731865,0.000251621011670813,0.0005093505681996037,-0.00455492741700187,0.0023513100896645858,-0.0023605512783440767,-1.992571614499495e-05
2024-03-06 02:10:37.226,0.011822954190900455,0.029569792912629348,-9.777427000320724,0.00029348582158669507,0.0005057611292163131,-0.004555128069178302,0.0016752329100317162,-0.00013595050431842434,-7.133140620549104e-06
2024-03-06 02:10:37.280,-0.0035372360710165442,0.029653673892759375,-9.80741586519572,0.0002634935166216289,0.0005579902388858723,-0.0045578155277900614,-0.0012091355597472848,0.0020836499816741867,-0.00010865989435037958
2024-03-06 02:10:37.332,-0.0016573541310629825,0.009366118727815606,-9.828258211499854,0.00022580848475158008,0.0006226565240966966,-0.004558702733860484,-0.0015191522831571396,0.00257974638311137,-3.6918589032616324e-05
2024-03-06 02:10:37.388,0.011382315374767096,0.05171048338277998,-9.798796475177053,0.000245153915240831,0.00063133102952492,-0.004559347615807839,0.0007722436305597829,0.00035049814528393276,-2.5400658275059246e-05
2024-03-06 02:10:37.446,0.030430780212357542,0.05505776869055179,-9.81238549535008,0.00029403347122391055,0.0005947245026254627,-0.004559736748933284,0.0019618467940587716,-0.0014553358541175966,-1.389907868901558e-05
2024-03-06 02:10:37.522,0.02813425744485952,0.046716948927727625,-9.824944286540003,0.0003084465937225539,0.0005445662088593019,-0.0045583146814695275,0.0005856358320991504,-0.002003664809515965,5.784983434488007e-05
2024-03-06 02:10:37.579,0.015794612261417724,0.024825730091380203,-9.816016535631526,0.00031969326387365477,0.0005223300971020827,-0.004560547790782896,0.0004539631080603941,-0.0008874129403560114,-8.87943650740686e-05
2024-03-06 02:10:37.631,0.005065702897421699,0.021708934642695202,-9.799044765763652,0.00033437839037685603,0.0005481831989601296,-0.00456231213799621,0.0005827217037924401,0.0010367689821298956,-7.06168968888944e-05
2024-03-06 02:10:37.701,-0.0008532390715485623,-0.014414043639354519,-9.798640758049974,0.00030424819268463297,0.0006085807282723471,-0.004562685396892005,-0.001216207683825732,0.002410373095594419,-1.633033948120705e-05
2024-03-06 02:10:37.754,0.0047699061505194745,0.005717520208607516,-9.81353530614609,0.00025034696553346745,0.0006348223134659186,-0.0045626290468070456,-0.0021608168059924233,0.001039815542838547,6.784598668963125e-07
2024-03-06 02:10:37.809,0.024586121699953202,0.028683139773467436,-9.818822610415562,0.00023198502744864284,0.0006139542163986437,-0.004562228006696356,-0.0007306712183428003,-0.0008380629104270453,1.5772353041379287e-05
2024-03-06 02:10:37.868,0.028433243340466378,0.03541736041403398,-9.810226782856914,0.00026921929607388124,0.0005706152652378533,-0.004562409413440217,0.00149726787073301,-0.00172674706877197,-5.87216214782429e-06
2024-03-06 02:10:37.920,0.01980835376960252,0.050891024233196414,-9.806388523312458,0.00028362499840752826,0.0005368286336438154,-0.004562660932507722,0.000582393198999966,-0.0013488250954038561,-9.345894151405413e-06
2024-03-06 02:10:37.980,0.00934714147374951,0.026908911781637464,-9.810220077334694,0.0002636350858516527,0.0005485321510148954,-0.004565207577196125,-0.0008016679836517218,0.0004644608775549082,-0.00010241970469591601
2024-03-06 02:10:38.033,-0.00018781853686174573,0.010274668296384083,-9.810530673398576,0.00023739413666927934,0.0005800889060218902,-0.004565197281574905,-0.0010553894544483033,0.001257465364639763,-4.655833847128155e-07
2024-03-06 02:10:38.084,0.007773759381528353,0.03246372025806948,-9.80857498921703,0.00023411960361368093,0.0006041244732843972,-0.004564786515416234,-0.00013537882450623463,0.0009608186423587972,1.6127391408024322e-05
2024-03-06 02:10:38.139,0.01623637364407079,0.03243718484191091,-9.805317595534774,0.0002700612187672518,0.0006020560345049782,-0.00456567381817539,0.0014380484922262144,-7.618330657121835e-05,-3.460326167567779e-05
2024-03-06 02:10:38.192,0.021322549249203973,0.05525063708281844,-9.799246490223734,0.00030182677443543895,0.0005689858775883357,-0.004566121821974182,0.0012766583579817265,-0.0013169965282719027,-1.6754199102095314e-05
2024-03-06 02:10:38.245,0.021994463851443578,0.030512281233792807,-9.810406900634288,0.0002713501636167725,0.0005303696737227656,-0.004566039731935848,-0.001212000538578142,-0.0015501979200975772,3.0147220216476607e-06
2024-03-06 02:10:38.297,0.014079334524440885,0.029830550413070648,-9.839302579123125,0.0002683066144551956,0.0005243665684566747,-0.004569177117325615,-0.0001205783430639399,-0.00024071099900214123,-0.00012549611035380694
2024-03-06 02:10:38.349,0.004782211007867602,0.029825073609964402,-9.818579348970628,0.0011416152444723227,0.0005564408651680526,-0.004567336886796021,0.03492608167738117,0.0014426824911987941,9.020776463376304e-05
2024-03-06 02:10:38.405,0.0017609707088332158,0.2470756909103503,-10.121748581333852,0.0016182699443515903,0.000573795561843813,-0.004568667936870822,0.019062865133396268,0.0007811951400150396,-4.392006620672024e-05
2024-03-06 02:10:38.458,0.017834913131618575,-0.14057123049388617,-9.520009220093051,0.000475298645150427,0.0005890831047418907,-0.004568354067024907,-0.045721195170468173,0.00040262946164732616,-1.3990710236782467e-05
2024-03-06 02:10:38.523,0.01824617838529919,-0.4538537682473732,-9.166605288631404,-0.0006669499506890559,0.0005792492759702283,-0.0045691187377510396,-0.045687647750742404,-0.0006020229065690988,-5.802196818256709e-05
2024-03-06 02:10:38.578,0.021149458878417734,0.07719390884506111,-10.195708163100187,-0.00046882779665876793,0.0005548476623446402,-0.0045690439937852295,0.0079292619700368,-0.0009398477625899617,7.138686921641737e-06
2024-03-06 02:10:38.631,0.016489155167501268,0.47042373810890303,-10.41301979584246,0.0006288476659207176,0.0005375518547764476,-0.00457095242056161,0.043909758532359885,-0.0004912312098776958,-5.177560157433108e-05
2024-03-06 02:10:38.683,0.010462321094897328,0.27053658002068703,-9.70883276765191,0.00097777322409956,0.0005536245907557949,-0.004571711201090609,0.013953957410544185,0.0007066784183637498,-2.3552574818074433e-05
2024-03-06 02:10:38.735,0.005229407641444973,-0.1589148053434048,-9.315820853126361,0.0003538541671653618,0.0005728995013709106,-0.0045721700824588206,-0.024960017158627307,0.0006568862830594639,-3.244209944726177e-05
2024-03-06 02:10:38.788,0.013173585886782031,-0.3061591844117563,-9.82606010406365,8.393452385946751e-05,0.0005894845225107743,-0.004572630372307263,-0.01079969348940192,0.0006140281001084074,-2.4657177670554455e-05
2024-03-06 02:10:38.840,0.015823640086581433,0.06748828593617123,-9.910456924295701,0.0002746284188472595,0.0005802179020223371,-0.004573190885263771,0.007629382834510898,-0.00033578652168354426,-1.7834409305791255e-05
2024-03-06 02:10:38.892,0.020904711717114274,0.1704863255295296,-10.007486948387852,0.0005328357352355353,0.000561127394903917,-0.004574734365843044,0.010331710755040484,-0.0007164078386914779,-5.536951992445205e-05
2024-03-06 02:10:38.947,0.017268033509543982,0.08154224318926744,-9.804414585209317,0.0005620830205771864,0.0005426209965725479,-0.004574642412976511,0.0011732634341025886,-0.000734893803530525,4.7495395126702455e-06
2024-03-06 02:10:39.001,0.013201690067539802,0.005431189780539666,-9.639239598437007,0.0005343445202299791,0.0005454525221504184,-0.004572143323392438,-0.0011101012694538297,0.00010823694183680985,9.930438111024227e-05
2024-03-06 02:10:39.055,0.00680487674537482,-0.031591889956093966,-9.782720730715658,0.0005125552637702921,0.0005642873246463145,-0.004572643165028205,-0.0008749941865141581,0.0007493888633428292,-2.0855272372772194e-05
2024-03-06 02:10:39.123,0.010298821052542161,-0.01669106943911683,-9.934719459460403,0.0005010031631099813,0.0005790944518616391,-0.004574170297210322,-0.00046475179384247674,0.0005901354023296434,-6.164385624810628e-05
2024-03-06 02:10:39.178,0.015099491689801785,-0.0039136111769181026,-9.863542017489072,0.0004529506208926882,0.0005861256233996676,-0.004574026689990022,-0.0019233712363682567,0.00027245402659636323,4.506908107794152e-06
2024-03-06 02:10:39.233,0.01700571129903777,0.018318932273643514,-9.726150244443062,0.00044484439417684976,0.0005658959641025441,-0.004574713596005644,-0.0003205290166927109,-0.000810673320456048,-2.7303748137180678e-05
2024-03-06 02:10:39.286,0.021534717393816134,0.018064222473743983,-9.744044116748263,0.00032143669355631994,0.0005468837095584609,-0.0045749054364778025,-0.004932772952318689,-0.000783067672129956,-1.0214813687725108e-05
2024-03-06 02:10:39.343,0.013393105269240979,0.04123411422059655,-9.857688841650141,0.00036652015783051,0.0005374944032525944,-0.004573668618252793,0.0018050110144893132,-0.0003672998537050057,5.059484410714679e-05
2024-03-06 02:10:39.394,0.011248164077029178,0.058777449276391495,-9.879333615446448,0.0005334802503836454,0.0005542534606893664,-0.0045721726394273516,0.006675234321832091,0.0007009340785878713,6.305127876460944e-05
2024-03-06 02:10:39.449,0.005291369778809444,0.014290685343151607,-9.79230683352086,0.0006229318876971984,0.000569838990463238,-0.0045737788607987315,0.003575214709984116,0.0006397356529717964,-6.266717677284651e-05
2024-03-06 02:10:39.506,0.01519274792969912,-0.03616934255759793,-9.746417126555672,0.0004856474880429762,0.0005833055694402276,-0.004574425690734196,-0.005493766844209181,0.0005135274089724376,-2.925517840951394e-05
2024-03-06 02:10:39.558,0.015247017544188344,-0.05573210445567981,-9.800308570437377,0.0002872683631634065,0.0005713516025408797,-0.004574095733001496,-0.007932901676448985,-0.0005144496718793705,8.715298341192083e-06
2024-03-06 02:10:39.611,0.021629068528858195,0.003779515148033716,-9.854196289028962,0.00024152549086635286,0.0005533749222343936,-0.004574957676023265,-0.0018263874490651152,-0.0007274375425752116,-3.5346071941942004e-05
2024-03-06 02:10:39.663,0.016080382565831407,0.07362989249918654,-9.833371637852906,0.0002926141249409553,0.0005382521027631014,-0.004574702939951594,0.0020462856293019973,-0.0005955540627024989,1.1495976740508953e-05
2024-03-06 02:10:39.716,0.011357245001026273,0.10378884142458587,-9.78650860571122,0.0004681870633663147,0.0005480948945041805,-0.004575179709837045,0.007021052953348387,0.00042582854406593895,-1.5494041118871496e-05
2024-03-06 02:10:39.769,0.00747198456318354,0.035489114767748534,-9.787191637654999,0.0005962737894651828,0.0005651387393036659,-0.004574647467181919,0.005120284280914534,0.0007052019241798643,2.367439950681909e-05
2024-03-06 02:10:39.823,0.01201450838612283,-0.04338572374237989,-9.816367178564215,0.00052785504718148,0.0005804150554048707,-0.004575499200123172,-0.002739496308005319,0.0005985079432831773,-3.593423468826936e-05
2024-03-06 02:10:39.877,0.015485487521151206,-0.07605428270666484,-9.82586024224863,0.0002812557067019283,0.0005845458081600381,-0.004575363129887533,-0.009864628667993314,0.00012009640770772995,-3.2211550053438706e-07
2024-03-06 02:10:39.942,0.01764438764306715,-0.0029288931701025676,-9.806981030706286,0.00018580631917509345,0.0005639101599776164,-0.004576464552066338,-0.0038141336643883307,-0.0008428944150171238,-4.613108980954927e-05
2024-03-06 02:10:39.996,0.020950784442781,0.05578822156930156,-9.796049818770456,0.0002593100259598467,0.000545793543694395,-0.004576781631921245,0.0029434403860460674,-0.000711204431742546,-1.0839517900480531e-05
2024-03-06 02:10:40.049,0.012442515753902678,0.11160315954988309,-9.812165796365166,0.0005162917253315782,0.0005447630723141497,-0.004576609160102515,0.010279344453429366,5.834696628101221e-06,1.2500349497597217e-05
2024-03-06 02:10:40.103,0.00861956220874343,0.05579729743639467,-9.811666700621135,0.0006153993849378526,0.0005584414374985355,-0.004576990783125436,0.003961769592103732,0.0005652640176153396,-1.3455583585957619e-05
2024-03-06 02:10:40.158,0.009574821433456714,-0.04418433169804981,-9.820555149718828,0.00048395620307137397,0.000571201282224044,-0.00457753721013401,-0.005259995499839571,0.00048631214536279626,-2.5031672367516703e-05
2024-03-06 02:10:40.213,0.015111508774513428,-0.06121546648781394,-9.812670852573389,0.00029253960776403915,0.00058163797848305,-0.004577888351212357,-0.0076584855606031035,0.00038240993062405574,-1.8535595846074023e-05
2024-03-06 02:10:40.267,0.01483510088769589,-0.001389628803215624,-9.79762133240822,0.00028501079810650914,0.0005719202137849073,-0.004577806432151569,-0.00029937166313255586,-0.0003900843296053287,3.213852641805721e-06
2024-03-06 02:10:40.322,0.01957774282124952,0.06447217040932207,-9.804834146009254,0.00037935751847999655,0.0005507253102285759,-0.00457858052890332,0.00377772693352786,-0.000830522038384695,-2.8489328679940755e-05
2024-03-06 02:10:40.378,0.017459478556880816,0.04201704605811918,-9.822788926807945,0.00043259564053382013,0.0005430388639884992,-0.004577819574544336,0.0021308934908778722,-0.0002976908127939947,3.1740576448292994e-05
2024-03-06 02:10:40.429,0.00908282402238783,0.012724385610892282,-9.821870270263977,0.00041983279274944647,0.0005564993251971626,-0.004578608379308152,-0.0005129555615195619,0.000536062519140389,-3.2056144573469366e-05
2024-03-06 02:10:40.478,0.008054663230135036,-0.010288592386758456,-9.802410472256193,0.00035338106569837317,0.0005675263686664855,-0.004579455488750679,-0.0026600411420435797,0.00042889454038345774,-3.551702695443955e-05
2024-03-06 02:10:40.531,0.014534887887684832,-0.007527814984193711,-9.792891517805431,0.0003355555496132617,0.0005770441358631968,-0.00457999425077798,-0.0007147439912965187,0.0003774341838423591,-2.2083025001515888e-05
2024-03-06 02:10:40.585,0.015011833707851106,0.01794597980077847,-9.807634819122612,0.00033707546702932894,0.0005807716363713513,-0.004580152094430451,6.0116880687875876e-05,0.0001493748220031619,-6.329473350787231e-06
2024-03-06 02:10:40.641,0.015345382779380754,0.04109611495896069,-9.822587295480117,0.00034460053455705327,0.000569516162654872,-0.0045803036417350436,0.00030306496024703594,-0.0004488376481151103,-5.7312660323350796e-06
2024-03-06 02:10:40.693,0.01839141972552761,0.015647249149731632,-9.81809385053554,0.0003507510118424456,0.0005608059465192825,-0.0045796743665870035,0.0002475980810661873,-0.00034726936912777835,2.5434097706577818e-05
2024-03-06 02:10:40.744,0.012749820356615038,0.015604350105676002,-9.806039277363565,0.0003465712322563125,0.0005719475864169743,-0.0045808352136843524,-0.00016920369459378113,0.00044487928253941246,-4.668344742023606e-05
2024-03-06 02:10:40.797,0.008605799985680916,0.01273487654082947,-9.803373180355848,0.00032594429785996146,0.0005833576266434192,-0.004581254301658089,-0.000827149428849542,0.0004526117607682389,-1.7384345147716893e-05
2024-03-06 02:10:40.850,0.013658906197340259,-0.003809706596295548,-9.807813912445205,0.0003260411523236682,0.0005917696763718465,-0.00458223773492619,2.3560306231416804e-06,0.0003364835286783128,-3.944608054537674e-05
2024-03-06 02:10:40.902,0.014870475682441136,0.01794253445311286,-9.810615982542359,0.00031793123213296934,0.00059845635202312,-0.004582358878659875,-0.0003256159986987029,0.0002659762010284914,-5.123058166340262e-06
2024-03-06 02:10:40.956,0.01427945813181357,0.01793719280908412,-9.810529648943794,0.00026001036496438296,0.0006015075563263403,-0.004582882451192399,-0.002317356663363624,0.00011142463245053425,-2.2359256176888778e-05
2024-03-06 02:10:41.010,0.015509899540130396,0.017780669596888683,-9.809709991984805,0.0002936870049263509,0.0005976712949789259,-0.004583034960216994,0.0013477581391586738,-0.0001472769434244434,-5.246580020153165e-06
2024-03-06 02:10:41.062,0.01581196063328768,0.041081843168778345,-9.812860283576068,0.0003532730397062492,0.0006034342245665171,-0.004583291237539283,0.002382365826035986,0.0002414351372821192,-8.912931379090702e-06
2024-03-06 02:10:41.113,0.01070587954099769,0.012602657572496182,-9.81559697483159,0.00033010918173788085,0.000610110060811406,-0.004584511262310745,-0.0009277384550392827,0.0002627678600710662,-4.944813903402178e-05
2024-03-06 02:10:41.163,0.01353728356937509,-0.006748605162611825,-9.807309042501487,0.0002758540338815185,0.0006161743939386445,-0.004585832566384101,-0.0021712621937020325,0.00023260671920385728,-5.424188714724303e-05
2024-03-06 02:10:41.215,0.014250055897541716,-0.0011277226268301215,-9.797115065480705,0.0002624206208669191,0.0006194257208200058,-0.004586136836491333,-0.000537919612703817,0.0001275843488145792,-1.2535887682925551e-05
2024-03-06 02:10:41.266,0.0143986504081521,0.04084124799838416,-9.808928239852804,0.00026913733399519654,0.0006219881144591461,-0.004586396462254613,0.00026820208666443094,0.00010372411430099358,-1.0246928935391784e-05
2024-03-06 02:10:41.323,0.01399627814776829,0.021701965003227616,-9.821246936094393,0.00026731940718562595,0.0006242188998134008,-0.004587017444981977,-7.310999603152887e-05,8.889039951392799e-05,-2.4908812418575372e-05
2024-03-06 02:10:41.377,0.0143467415916855,0.03814490938377298,-9.810819290250741,0.0003555641017564828,0.0006277069526456675,-0.0045877714721593,0.0035291291387823005,0.00015570210483140738,-2.8014514938392148e-05
2024-03-06 02:10:41.428,0.01374873266466801,0.018899411691561112,-9.790488426280293,0.00035250934013695916,0.0006311018733573371,-0.0045888929483604264,-0.000122783753283494,0.0001352191256064117,-4.4984271455249956e-05
2024-03-06 02:10:41.479,0.013887545060003365,0.01837533249305728,-9.821803494438548,0.00034564735411843074,0.0006322898319448092,-0.004589814014588033,-0.0002746712049292261,4.624560609271947e-05,-3.7032383127219824e-05
2024-03-06 02:10:41.530,0.014035727023836618,0.011850354968489284,-9.828783011745724,0.00032797457760190904,0.0006323089854169406,-0.004590022653727167,-0.0007069017401415896,-2.481314945922728e-06,-8.791842049700284e-06
2024-03-06 02:10:41.581,0.014493390920594859,0.01549288862488482,-9.80565100900065,0.000318765640719047,0.0006319936374014352,-0.004590517382246719,-0.00036828310953374824,-1.431088265310923e-05,-2.0017671356990618e-05
2024-03-06 02:10:41.633,0.013278694774756735,0.015490464094023994,-9.793609474344102,0.0003168098825548153,0.0006315064194334148,-0.0045904710949757725,-7.814120318892026e-05,-1.9847068375825812e-05,1.8084130191410994e-06
2024-03-06 02:10:41.687,0.01438530139125034,0.015488827913133218,-9.809902496351835,0.00031284989891289044,0.0006315595634179539,-0.004590601948617313,-0.0001584040976206836,1.3969562611025257e-06,-5.334674877673018e-06
2024-03-06 02:10:41.753,0.013312826654101573,0.015700186468232877,-9.825243892998026,0.0003076046899808494,0.0006307565307597349,-0.004590969357449899,-0.0002096493745512906,-3.3088637932359294e-05,-1.4818743406741019e-05
2024-03-06 02:10:41.811,0.013847201514039396,0.015609170609265378,-9.813385642615456,0.00032655521922098866,0.0006313162098311177,-0.004592413039799939,0.000757946837111702,2.5848452463434816e-05,-5.727830627478117e-05
2024-03-06 02:10:41.863,0.013832319816739009,0.01529941446370083,-9.796808101574692,0.00033536929449093106,0.0006308523672106592,-0.004592798203351772,0.0003526541875370401,-1.6939443472935324e-05,-1.5178395864320261e-05
2024-03-06 02:10:41.915,0.013870158341564865,0.01277015247350533,-9.803587477670087,0.00031054766505801354,0.0006286960286424115,-0.004594170247586466,-0.000992423852094584,-9.082974711293411e-05,-5.5480290309558806e-05
2024-03-06 02:10:41.983,0.014011386854935456,-0.0035423677354659844,-9.816624316714853,0.000272233071492298,0.0006269891909366141,-0.004594592923555423,-0.0015322430644470837,-7.53185471772828e-05,-1.7850176730883878e-05
2024-03-06 02:10:42.040,0.013830459445414894,0.01794112873816857,-9.817142132041743,0.0002803802816356842,0.0006235889302389701,-0.004595114918324633,0.00032652285182082984,-0.00013451742530381976,-2.063757615947363e-05
2024-03-06 02:10:42.092,0.014363208128903187,0.01793845718855847,-9.80988731579459,0.0002988726052068356,0.0006196232011606769,-0.004595801467083528,0.000740430968018946,-0.00015523652518876932,-2.695415088961054e-05
2024-03-06 02:10:42.144,0.013879537596180878,0.01793746747647101,-9.80516355478825,0.0002929195898826397,0.0006156594315087293,-0.004597553267267281,-0.00023734618987709374,-0.000159663860186437,-7.017306315504628e-05
2024-03-06 02:10:42.196,0.013763486532494134,0.017936075222047664,-9.80560593299018,0.0002908259761792311,0.0006106284257642068,-0.004598699252512399,-8.279042205140398e-05,-0.00020163636980935677,-4.583223232678205e-05
2024-03-06 02:10:42.247,0.013794942860452379,0.01793289908480099,-9.810381103000198,0.0002902076122197308,0.000603321456148529,-0.0045999556840702685,-2.335985376984137e-05,-0.00029240393237445433,-5.018720562957375e-05
2024-03-06 02:10:42.298,0.014483754779212533,0.017936712959702256,-9.813864994321843,0.0002741292259074061,0.0005931075150475613,-0.004600747257822374,-0.0006412304640427272,-0.00041152047054910615,-3.193736687127371e-05
2024-03-06 02:10:42.350,0.014330011983137825,0.0179376521038867,-9.81056904388683,0.00025833399293321484,0.0005820126657165512,-0.004604172173564776,-0.0006296809374442303,-0.00044673125121764225,-0.00013725618431424606
2024-03-06 02:10:42.402,0.013104765744734972,0.017760415605589563,-9.80730978755951,0.0007177293748896839,0.0005788181804276583,-0.004604099140279816,0.018376206356157433,-4.3160434377031537e-05,1.3628209231870649e-05
2024-03-06 02:10:42.455,0.011615687929754417,0.10387685325680214,-9.939778310313175,0.0006157197508558048,0.0005733670969777652,-0.004604286385333999,-0.004079333833396741,-0.0002368334456222841,-9.706232480945622e-06
2024-03-06 02:10:42.511,0.015263544176265596,-0.09104727400440167,-9.65277748900312,0.00026307259458437424,0.0005682168786524107,-0.004604956444725353,-0.014104772189466085,-0.0002709618047644712,-3.483012681713853e-05
2024-03-06 02:10:42.561,0.01381559452829096,-0.07429197150502304,-9.684296703060035,7.886812735905267e-05,0.0005618416348838508,-0.004605487831347787,-0.00736691330325001,-0.00028893879549930345,-2.5422074017825284e-05
2024-03-06 02:10:42.614,0.01360136051487875,0.07725546890052137,-9.93201732027076,0.00023921580619579963,0.0005523127965751346,-0.004605273073032135,0.00641558886748138,-0.0003516071837578439,1.2276757510539575e-05
2024-03-06 02:10:42.667,0.01423223739651406,0.11554809558730654,-9.948527712957084,0.00047852100752386693,0.0005502277262082716,-0.004605190071367302,0.009572487978374702,-3.9314563547141356e-05,8.620705876974848e-06
2024-03-06 02:10:42.730,0.01110234508832139,0.05845318860096148,-9.760704824890992,-0.011167755545123377,0.0006615045185639159,-0.00529253626882642,-0.46585894053648597,0.0026171723106248215,-0.027735511831240116
2024-03-06 02:10:42.782,0.23970357652885507,0.0009963732263398965,-9.57692909201292,-0.006281268170577273,0.0005438033534705967,-0.007106827001577003,0.19552677202187382,-0.003217857043184492,-0.07246786908520515
2024-03-06 02:10:42.833,0.25217496425322194,4.163046556813294,-9.842675363666896,0.0035003201018361093,0.0001692529808609658,-0.0071809465867771986,0.39136271018500873,-0.012209586462484788,-0.0027229041921858137
2024-03-06 02:10:42.887,-0.6663109109036477,1.7239225878891982,-10.019053229157148,-0.0012809075890891702,0.00018624508048190237,-0.007120513156032685,-0.1912497826787763,-0.0006966560843581194,0.002380855133439139
2024-03-06 02:10:42.953,-0.07535602359403767,-0.7525186162642674,-9.749817850775354,-0.008323476652718554,0.00025784358133026664,-0.007019752958782355,-0.28172063819370047,0.0008250847180304007,0.0039779801393654965
