Timestamp,Linear_Acceleration_X,Linear_Acceleration_Y,Linear_Acceleration_Z,Orientation_X,Orientation_Y,Orientation_Z,Angular_Velocity_X,Angular_Velocity_Y,Angular_Velocity_Z
2024-05-10 21:04:59.772,0.017375453983353776,-0.005520129126777444,-9.809964801829118,-0.0006084722121289896,0.0006992258804728604,0.8503321631890822,-4.370213295753836e-05,-1.0199657116799906e-06,7.342696600248958e-07
2024-05-10 21:04:59.830,0.017375321379032554,-0.0055195944803424005,-9.809964801829118,-0.0006084722121289896,0.0006992258804728604,0.8503321631890822,-0.0,0.0,-0.0
2024-05-10 21:04:59.887,0.017420300801170206,-0.00475060200133572,-9.808549005318435,-0.0006084722121289896,0.0006992258804728604,0.8503321631890822,-0.0,0.0,-0.0
2024-05-10 21:04:59.940,0.01733184698865591,-0.00601878790409939,-9.811301808453731,-0.0006084722121289896,0.0006992258804728604,0.8503321631890822,-0.0,0.0,-0.0
2024-05-10 21:04:59.996,0.017374452993532546,-0.00552917491517689,-9.810002986052863,-0.0006084722121289896,0.0006992258804728604,0.8503321631890822,-0.0,0.0,-0.0
2024-05-10 21:05:00.052,0.017367188132098785,-0.005942911174895386,-9.810267295386986,-0.0006084722121289896,0.0006992258804728604,0.8503321631890822,-0.0,0.0,-0.0
2024-05-10 21:05:00.107,0.017375221516519043,-0.005506412719508354,-9.809964801829118,-0.0006084722121289896,0.0006992258804728604,0.8503321631890822,-0.0,0.0,-0.0
2024-05-10 21:05:00.163,0.017375104373607016,-0.005506768923091386,-9.809964801829118,-0.0006084722121289896,0.0006992258804728604,0.8503321631890822,-0.0,0.0,-0.0
2024-05-10 21:05:00.223,0.017422372266204578,-0.0038671398879546234,-9.808891732009615,-0.0006084722121289896,0.0006992258804728604,0.8503321631890822,-0.0,0.0,-0.0
2024-05-10 21:05:00.283,0.017336429204644736,-0.0069089299260559015,-9.810906741436344,-0.000609029131512182,0.0006982833686709444,0.8503322066395202,-4.378388654241833e-05,-8.961605701422739e-07,3.2435000473594467e-06
2024-05-10 21:05:00.336,0.01737536958224946,-0.005514091310062299,-9.809997211853176,-0.000609029131512182,0.0006982833686709444,0.8503322066395202,-0.0,0.0,-0.0
2024-05-10 21:05:00.393,0.017373209714334276,-0.0053610028499197025,-9.809993859092065,-0.000609029131512182,0.0006982833686709444,0.8503322066395202,-0.0,0.0,-0.0
2024-05-10 21:05:00.448,0.017374123938365075,-0.0055090733097078156,-9.809993859092065,-0.000609029131512182,0.0006982833686709444,0.8503322066395202,-0.0,0.0,-0.0
2024-05-10 21:05:00.502,0.01737380015826662,-0.005541803794207989,-9.809982590089447,-0.000609029131512182,0.0006982833686709444,0.8503322066395202,-0.0,0.0,-0.0
2024-05-10 21:05:00.558,0.01737305000707223,-0.005550747719205675,-9.810008015194528,-0.000609029131512182,0.0006982833686709444,0.8503322066395202,-0.0,0.0,-0.0
2024-05-10 21:05:00.616,0.01737491701770735,-0.005549651823616826,-9.80999395222432,-0.000609029131512182,0.0006982833686709444,0.8503322066395202,-0.0,0.0,-0.0
2024-05-10 21:05:00.672,0.017376938096737633,-0.005543234020033329,-9.809993486563053,-0.000609029131512182,0.0006982833686709444,0.8503322066395202,-0.0,0.0,-0.0
2024-05-10 21:05:00.730,0.017373275925545422,-0.005541299524894542,-9.809995628604872,-0.0006095655735662014,0.0006973222439394173,0.8503322069318842,-4.398302404370081e-05,-1.9853548127602325e-06,-3.839983961061611e-08
2024-05-10 21:05:00.789,0.01737189804113768,-0.0054696373484636384,-9.809985570321546,-0.0006095655735662014,0.0006973222439394173,0.8503322069318842,-0.0,0.0,-0.0
2024-05-10 21:05:00.844,0.01734816114004355,-0.0065181380337860535,-9.810269996222322,0.001712343067983203,0.004446496217075578,0.85032194042953,0.17639824665816112,-5.5589409046883095e-05,8.205516628911003e-05
2024-05-10 21:05:00.898,0.017426558124421197,0.16284276448352508,-9.849422981664006,0.0011948293822280863,0.0036097325819061323,0.8503260085736516,-0.039355038155808035,-1.1406812179174147e-05,7.999781893770432e-06
2024-05-10 21:05:00.956,0.01726187410760384,-1.4626043256766494,-9.780676664025979,-0.0012584366805322121,-0.00035423042926164536,0.850333036268057,-0.1864686796434028,3.222545758595289e-06,-4.258392134348069e-05
2024-05-10 21:05:01.017,0.017518047648206882,-0.9891633136630253,-9.729030173103753,-0.0007994529342104003,0.0003902837869515671,0.8503314769609571,0.03498503960817931,6.028724099611242e-05,-0.00011725953092965268
2024-05-10 21:05:01.074,0.017285141527555215,0.44708687987743795,-9.80008300412052,0.0011210739867904336,0.003495458593107502,0.8503232195919718,0.1460444480154087,4.006051115450873e-05,-8.861330281926492e-05
2024-05-10 21:05:01.131,0.017264522192251747,-0.10414264194082959,-9.903128067907383,0.0005458872617679489,0.0025665535828797536,0.8503255614164432,-0.04370286147089052,1.0248532933597791e-05,-7.371653065776858e-05
2024-05-10 21:05:01.191,0.01735873983621529,-1.0479819180274648,-9.842757133785064,-0.0009789783827987581,0.00010098889800618907,0.8503286520782352,-0.11596025079378874,-3.471906269813762e-05,-5.909477667575124e-05
2024-05-10 21:05:01.253,0.017578904300498202,-0.3971856480869762,-9.717115205179084,-0.0008559898135553581,0.00030058251915475416,0.8503285043973844,0.009377737207093702,1.822876884304819e-05,-7.619632193932543e-06
2024-05-10 21:05:01.315,0.016999028150387632,0.5928647713865122,-9.741007446505707,0.0006430745871983666,0.0027224089388108393,0.8503243719057709,0.11392951995481555,-8.120291184959544e-06,1.3141533860275802e-05
2024-05-10 21:05:01.371,0.017271984595925348,0.19545006743357196,-9.896968486955954,0.0006192550546025222,0.0026840867705067465,0.8503243394173022,-0.0018048571452036366,3.458657219884697e-06,-1.1744601004013141e-05
2024-05-10 21:05:01.427,0.017226944237645567,-0.6561300201922365,-9.891754291505118,-0.00031001682090449334,0.001183789318556848,0.850325116298351,-0.07059104868448739,2.5818234405086198e-05,-0.00020032824806545592
2024-05-10 21:05:01.485,0.017404250948930347,-0.45610843679259505,-9.745382147827662,-0.0004602317021567599,0.0009419918581392382,0.8503241413336053,-0.011386248996506953,1.93091383054487e-05,-9.708295023171901e-05
2024-05-10 21:05:01.541,0.017740434917435346,0.17840810649687688,-9.711895887454329,0.00012522004516137306,0.001889284695840536,0.8503211121213111,0.04454436149889193,2.7714382517361484e-05,-0.00011044242698426309
2024-05-10 21:05:01.599,0.017228597335136996,0.20988257332564217,-9.843079930174094,-0.00014838390986333702,0.001447647901105722,0.8503215848199879,-0.020780844788510125,9.373887948059895e-06,-2.995000486548357e-05
2024-05-10 21:05:01.658,0.017495128746608676,-7.406924499428691e-05,-9.895688849799212,-0.0004008506197597477,0.0010415056687397679,0.8503220979087655,-0.01912863029746948,3.7636100028051357e-05,-6.2016559621342195e-06
2024-05-10 21:05:01.719,0.01733086255163747,0.16711856612564588,-9.811426978201814,5.4985286815551164e-05,0.0017781891578848596,0.8503206087090555,0.034652359812240074,3.2122271973636285e-06,-2.0359363350781506e-05
2024-05-10 21:05:01.776,0.01729852183107323,0.21189649208637784,-9.749143107602094,0.0004522652394651659,0.00242134980137896,0.8503167051308567,0.030238916603966947,2.5832966206729973e-05,-0.00017608137007629
2024-05-10 21:05:01.832,0.016999365118158635,-0.09972745719263301,-9.795773774772451,0.0002475828066822183,0.002091229075521073,0.8503153189894486,-0.015536913941047722,1.2223544312076177e-05,-0.0001719718566038902
2024-05-10 21:05:01.888,0.01819884696449973,-0.303552267857673,-9.848530588415395,-0.00042108449586728604,0.001011237579596992,0.8503155167882233,-0.05080935412526632,8.408086486674394e-06,-0.00013471947705778831
2024-05-10 21:05:01.946,0.01743788897267558,0.03276541382443523,-9.816105570065432,-0.0003502071128637663,0.0011255183048508289,0.8503138968932149,0.0053791250999911605,-5.10164709171813e-06,-0.00011220493339039018
2024-05-10 21:05:02.003,0.017316226054097033,0.45422784049006193,-9.782816191275021,0.00011592172556409438,0.0018808097410106227,0.8503127442964566,0.035501915559485474,4.5429837807560796e-05,1.376741226496658e-05
2024-05-10 21:05:02.058,0.017695153543071048,0.3659459821290848,-9.806244354584754,0.00020810031590487245,0.002030067261885796,0.8503123411892055,0.007017102023341815,6.7831430557595526e-06,-4.568916854979742e-06
2024-05-10 21:05:02.117,0.017304292028985084,0.04385047733190065,-9.839425141168123,1.5471131856108725e-05,0.0017204435065839797,0.8503102749276001,-0.014585978117601674,3.3611509628194856e-05,-0.00020901592358722846
2024-05-10 21:05:02.173,0.01724953553926776,0.03071168466350444,-9.81717817422367,0.0005408544645406615,0.002569627279057982,0.8503049287836676,0.039943085444190674,6.162451591367562e-06,-0.0002435417325253538
2024-05-10 21:05:02.230,0.01869937552641551,-0.035018175341256945,-9.794515092372643,0.00012370757749866147,0.0018964521573479316,0.8503049009983704,-0.03167773968510593,1.661810986849879e-05,-0.00013651839997558783
2024-05-10 21:05:02.285,0.016513696334721974,-0.09324468112971751,-9.784133174465232,-0.0004959535482170558,0.000894028806729158,0.8503051881647309,-0.04713944483543983,-2.6484567168654533e-05,-0.00010318612160444942
2024-05-10 21:05:02.344,0.017862240080978496,0.29734116921795684,-9.810167271347222,-0.00026478620626998995,0.0012687408509018498,0.8503037219504351,0.017611304450840526,2.569328419430952e-05,-7.524398684651161e-05
2024-05-10 21:05:02.398,0.016501498647108506,0.6897475941319696,-9.83121301849199,0.00019650907491290516,0.0020130315128267687,0.8503020910693052,0.035026032335996965,-2.1126755466015006e-05,-1.4730438126943457e-05
2024-05-10 21:05:02.451,0.01840912267525889,0.5102725835527278,-9.829702785876727,0.0001724846736914091,0.001974612561244334,0.8503016011185343,-0.0018124296552050594,8.259948106097861e-06,-4.410677146279018e-05
2024-05-10 21:05:02.509,0.017319391641205665,0.18434541704913948,-9.805833455084352,0.0006513018948510292,0.002747837786305935,0.8502973154052936,0.036379214828793166,-8.29296793801671e-06,-0.00016249810079871973
2024-05-10 21:05:02.569,0.01807074373234489,-0.03405871813931072,-9.801228530832887,0.0007167924610744042,0.0028544442519009205,0.8502929107165154,0.00500489802153269,1.593642202077129e-05,-0.0003081524365110208
2024-05-10 21:05:02.629,0.01681761752635497,-0.27945363381678673,-9.800236020412262,-2.5890770297112466e-07,0.0016961807306189775,0.8502933085085707,-0.05449014123098879,4.050155995789611e-06,-0.00020533558810198403
2024-05-10 21:05:02.683,0.017231860511022493,-0.08205434034134135,-9.800146613449346,-0.0005008504337590182,0.0008890704284252389,0.8502939073075102,-0.037989846544035845,3.448539752583364e-05,-4.774559919071912e-05
2024-05-10 21:05:02.742,0.016902040003795138,0.5689210133720454,-9.805584233175223,-0.0003858376639041711,0.0010758304066866141,0.8502938314877185,0.00877331682263804,1.9946721212373607e-05,1.0627059524128644e-05
2024-05-10 21:05:02.802,0.017541276687483665,0.8907462338189986,-9.822983852613552,-0.0002721529351320397,0.0012619085133845104,0.8502941406856166,0.008722139265681871,5.079251557047766e-05,4.289103779535428e-05
2024-05-10 21:05:02.860,0.017346247017585116,0.8163974523672182,-9.830448588959056,-9.989179994562608e-05,0.001541223426940806,0.8502938426941943,0.013126490537290512,2.1318840972367727e-05,1.2308937672542288e-05
2024-05-10 21:05:02.916,0.01777911436102252,0.5922972787337739,-9.819142799101508,-0.0007903594287597542,0.00042598320761522086,0.8502943857851443,-0.0524672116678649,5.744494959064628e-06,-5.676697395647072e-05
2024-05-10 21:05:02.973,0.018094276360938702,0.7643646139347969,-9.77835394563521,-0.00042416530850689766,0.0010194071354227513,0.85029226561597,0.027892751249035508,3.793504388870153e-05,-0.0001228171247443646
2024-05-10 21:05:03.032,0.017429410117771556,0.9666822624385399,-9.792109113747658,8.1378972886254e-06,0.0017153547545503839,0.8502895895981237,0.032771527211771574,-5.216607080400596e-05,-0.00011821508206555785
2024-05-10 21:05:03.088,0.01748205130481197,0.6354344881538685,-9.841287879361136,-9.603240432418431e-05,0.0015485511578991272,0.8502889420182286,-0.007866255112345056,3.12729073495431e-05,-7.359866840066435e-05
2024-05-10 21:05:03.144,0.0170704695924649,0.3785403556604328,-9.844846742146476,0.0001299902834122046,0.001913283075271529,0.8502881771434605,0.017163503835934703,-8.84432571156939e-06,-1.6800624551144306e-06
2024-05-10 21:05:03.205,0.01786954168599646,0.3060848794257465,-9.793562163159558,0.0004391204868566589,0.002414126115614604,0.8502827277000983,0.023542802194908584,2.9317646065406574e-05,-0.0003174047031801664
2024-05-10 21:05:03.274,0.015185685203453227,0.13295766644334328,-9.76459561102616,0.0008038450210398882,0.0030035898754235514,0.8502741048188432,0.02772756512785178,3.597978899292974e-06,-0.0005126274457113016
2024-05-10 21:05:03.336,0.018279434648661483,-0.18841897523089524,-9.834717771438317,-0.0001002419753082992,0.0015420541369109298,0.8502768389420535,-0.06874264143400077,-2.124906636078539e-05,-8.908180657519025e-05
2024-05-10 21:05:03.401,0.01863961627037923,-0.03175907035385017,-9.827345515420083,-0.0007069818909002679,0.00055986644686514,0.8502770943116403,-0.04617918023599558,-4.2437574624627083e-05,-7.28827483830659e-05
2024-05-10 21:05:03.457,0.017682001158914475,0.6818026213236771,-9.791120049220396,-0.0005047377673628811,0.000885520213677027,0.850275060034619,0.015333892995644596,-2.2491255676390296e-05,-0.0001335618847523958
2024-05-10 21:05:03.514,0.0173255990331999,1.0127648928658948,-9.793852270127772,-0.00032397733355139124,0.0011788048292762454,0.8502755484370812,0.013780502641023363,2.6880958206153177e-05,6.415295279358194e-05
2024-05-10 21:05:03.571,0.01738990121505576,0.8585407776659544,-9.81973698287589,0.00020041505054534434,0.0020262787320813186,0.8502744110653718,0.039863776702145734,7.215044915213361e-06,3.4930474844582274e-05
2024-05-10 21:05:03.631,0.01752668857505907,0.48275071348036974,-9.8630140507466,0.00012879820265583301,0.0019123668345798653,0.850273833182978,-0.0053819992409815855,3.741490942058484e-05,-6.406111629070094e-05
2024-05-10 21:05:03.720,0.017559709597627923,0.17755982001027948,-9.812218043559119,-0.0003583785348379116,0.0011272952595662328,0.8502729418085476,-0.036957755642865624,4.073481680872137e-05,-0.00017441249295090133
2024-05-10 21:05:03.778,0.01818609039241857,0.351483539310833,-9.757159838811353,-0.00022743457946525618,0.001340471318951753,0.8502706396413832,0.01000730993151604,3.445196374595987e-05,-0.00015148557104920836
2024-05-10 21:05:03.836,0.01729926125023065,0.591886574229025,-9.794364963180746,0.00035011960604546064,0.0022766854789613338,0.8502655890099721,0.044001427795908606,6.72616321889516e-05,-0.0002327143023706155
2024-05-10 21:05:03.895,0.01672025275802436,0.4037345102145709,-9.856454280503868,0.000713132390721807,0.0028601850351900764,0.85026343929632,0.027488232632538294,-6.13918173716118e-05,-2.9128898483856613e-05
2024-05-10 21:05:03.951,0.018930338966476463,-0.06730249413994402,-9.842909498151034,-0.00017747657071271375,0.0014192686732703115,0.8502663525452431,-0.06775760127861197,-4.692163324432862e-05,-5.4112483085377425e-05
2024-05-10 21:05:04.007,0.0171866947334293,-0.016863893615027353,-9.760547990176875,-0.00033958630883871335,0.0011576228563105796,0.8502610258117217,-0.012311441172117455,4.410976736362313e-06,-0.0004349346300840045
2024-05-10 21:05:04.065,0.01588790118627935,0.5489971431681381,-9.767482990267098,0.000597482592295127,0.0026690701176195304,0.8502522753181592,0.07113496371156254,-4.851136271046268e-05,-0.000406301401772473
2024-05-10 21:05:04.124,0.018640035638366297,0.4843927340544486,-9.850850326574067,0.00018661469638975357,0.0020059943648332115,0.8502523493417096,-0.031202065994858637,1.2543448945060677e-05,-0.00013293814661845623
2024-05-10 21:05:04.187,0.016969598085579227,0.08304266563134645,-9.853415468219492,-0.0007895455403109408,0.0004311390569910921,0.8502528759259064,-0.07411399266709186,4.101583775656827e-05,-0.0001314606321202929
2024-05-10 21:05:04.248,0.016958597838633235,0.5000505664478253,-9.785014391843477,-0.0011285785954625773,-0.00011522695798902166,0.8502525369157669,-0.025720286866036533,2.6876464761611827e-05,-3.341395991973934e-05
2024-05-10 21:05:04.308,0.01801040067168727,1.211424975858374,-9.758254608445814,-0.0002793707216643843,0.0012620353397230627,0.8502522911727783,0.06472088862625766,0.00011663867382207683,5.179636350107435e-05
2024-05-10 21:05:04.367,0.017635830389723554,1.1932919108235394,-9.837918261313968,0.0005723666853081575,0.002637673378301165,0.8502476292786256,0.06471915388910443,-3.9188794994664764e-06,-0.00011451718163583298
2024-05-10 21:05:04.428,0.018109521765153052,0.4205908120957842,-9.878097377919625,0.0006658305216954042,0.0027906599738060423,0.8502434833684809,0.007171249393236418,4.168610884685221e-05,-0.00027813086149235274
2024-05-10 21:05:04.486,0.017345349801104432,-0.195201325737622,-9.805414639342441,0.0006534159748602112,0.002769127727621387,0.8502416153947382,-0.0009935731380002694,-3.1549118831086205e-05,-0.00014715620279149048
2024-05-10 21:05:04.546,0.019213143329227755,-0.3216786681156493,-9.74164698568732,0.0004278477980176593,0.0024029206684185243,0.8502394157636933,-0.017203909950103673,-3.970486951236065e-05,-0.0002516442412320374
2024-05-10 21:05:04.602,0.01718117992161757,-0.15582211041177843,-9.772637487943738,-0.0003099385701466211,0.0012092292513638235,0.8502407217996545,-0.05613166915705875,-4.215723002386415e-05,-9.340053361277308e-05
2024-05-10 21:05:04.660,0.01698826864667777,0.30507062262403617,-9.83494538666474,-0.0008257982145432207,0.0003782697368108191,0.850240427573373,-0.03912238981011491,4.778434473753022e-05,-8.125247763598544e-05
2024-05-10 21:05:04.722,0.016884280483496092,0.993511988158234,-9.845374988285709,-0.00026553312664615524,0.0012824312920156678,0.8502399437200465,0.04254700337868924,-1.655187610919281e-05,3.0348042291221318e-05
2024-05-10 21:05:04.779,0.018721790840821262,1.0436448820625535,-9.824990759534268,4.984997197377671e-05,0.0017895772997492813,0.8502367708456913,0.023888662093459842,-4.7972819504322144e-05,-0.00017137677979370283
2024-05-10 21:05:04.842,0.01667385179573536,0.6847100472820807,-9.785582684851516,-0.0004352238139275368,0.001009125288011681,0.8502364969634619,-0.03675641326719156,6.392705960735213e-05,-0.0001184410907058247
2024-05-10 21:05:04.898,0.01919035475821412,0.5804572589897362,-9.790069983067392,-0.0001441743236918041,0.0014833063011256103,0.8502340983932826,0.022255124172260006,8.576675914070137e-05,-0.00012957488793617996
2024-05-10 21:05:04.959,0.01674323568804653,0.6584858965754689,-9.843835512142991,0.0007910561107483326,0.00299109902058522,0.85022840050809,0.07097177066600753,-5.868023456819016e-05,-0.00013119867066254442
2024-05-10 21:05:05.017,0.01912721227299741,0.24470927166503587,-9.848891103366906,0.00047700111000801817,0.0024811627510922885,0.8502299289242181,-0.023955497346420024,-5.659200220009342e-05,-8.340895324251198e-06
2024-05-10 21:05:05.076,0.016952333512273376,-0.14620461621653713,-9.780225810789021,-0.0003438219581390024,0.0011513382709866288,0.8502342484074206,-0.0625101022763757,-8.54065596143363e-05,0.00011242452372467815
2024-05-10 21:05:05.132,0.01791956334652125,0.2172908802569519,-9.754907900932894,-0.00047770885879114223,0.0009329691190586828,0.8502337027887736,-0.01024569515881786,-4.463162052668953e-05,-6.179038908197369e-05
2024-05-10 21:05:05.193,0.0177959338731172,0.7622757855560025,-9.813520311853349,-0.0005089827265244273,0.0008860156607390571,0.8502326652041181,-0.002255292636057662,7.490365663721899e-05,-8.266518175336587e-05
2024-05-10 21:05:05.254,0.0173731246765837,0.9463176787717252,-9.846523960891439,-0.0004904754644024594,0.0009217374372874822,0.8502305469281672,0.001604710593907032,0.00012266435667403902,-0.00015809391508260796
2024-05-10 21:05:05.313,0.017652685554008847,0.9336774557956492,-9.848543440666315,0.00018844198210192132,0.0020159412194339196,0.8502272158467156,0.051508748441166714,-4.965335440636776e-05,-0.00010934240415260232
2024-05-10 21:05:05.371,0.01835723254890753,0.6720373669882251,-9.813890605691428,0.0010028855154559232,0.0033335652273288057,0.8502173199888028,0.06196126546141733,4.461418827398682e-05,-0.0004372333126448398
2024-05-10 21:05:05.430,0.0179382365451543,0.00981772562889009,-9.786855802750544,0.0009505283781438695,0.0032432975752672557,0.850215675913211,-0.004172273635108616,-0.00012064381615104906,-0.0001507764331592214
2024-05-10 21:05:05.491,0.01730332387192103,-0.4800289466683974,-9.78798130602851,-3.869645395683061e-05,0.0016411133526800675,0.8502195693148537,-0.07531876622574547,-9.494038064139092e-05,-5.368041292559606e-05
2024-05-10 21:05:05.550,0.015769921004840984,-0.15713492011289956,-9.789065737982884,-0.0007667374532083015,0.00046578798765154264,0.8502194428126403,-0.05530177013272637,1.0965559742346861e-05,-0.00012025508643167096
2024-05-10 21:05:05.610,0.018087121184560767,0.7539072880062538,-9.804080147288659,-0.0005886350360907118,0.000758428195358358,0.8502163466025219,0.013702865901080625,0.0001050393849467594,-0.00021922849340123677
2024-05-10 21:05:05.671,0.015766896815730052,1.1732227659464245,-9.84172085120551,5.52162568386928e-05,0.0018002429429929679,0.85021299376174,0.04898867823650653,4.110787832260397e-05,-0.00013573622648887146
2024-05-10 21:05:05.730,0.017930982506706977,0.8841119228492416,-9.854159501789011,9.996630145282769e-05,0.0018740594188103243,0.8502122669560017,0.0034527604132034433,3.2431725324292356e-05,-4.318277521338062e-05
2024-05-10 21:05:05.788,0.018815604760105867,0.46823653642315105,-9.784428310575109,0.0004145932193907468,0.0023768101412568327,0.8502089709507992,0.02372327474841953,-0.00011366994037998098,-0.0001545351766398635
2024-05-10 21:05:05.847,0.018008328297158243,0.1691412478674169,-9.783357103400665,-0.0004360452685056314,0.0009956248996675218,0.8502080010234364,-0.064884278629097,-0.0001557445784231329,-0.000281779696986923
2024-05-10 21:05:05.918,0.018825835301722306,0.3358119770041915,-9.795456007525086,-0.0013370514167952363,-0.0004642196087093911,0.8502069871887227,-0.0686200737371804,-9.927902314277192e-05,-0.0001120034977180568
2024-05-10 21:05:05.982,0.014253399836552896,1.0728186418174295,-9.81581741887453,-0.0012603458593370485,-0.0003356114183333748,0.8502020628562321,0.005989348834197235,9.994969910825824e-05,-0.00037847135155562333
2024-05-10 21:05:06.042,0.013998503863096753,1.5821709593844422,-9.83029268556747,-0.0004691984912488817,0.0009408705754710515,0.8501988196630963,0.06007111247874278,-2.5074297321316405e-05,-0.00021188797133218484
2024-05-10 21:05:06.105,0.02040079737943302,1.2850734551542007,-9.841636473384257,-6.953813472807053e-05,0.0015916303571943263,0.8501971776272923,0.03054731580988415,0.00011229037387211272,-5.131577152409265e-05
2024-05-10 21:05:06.165,0.018539059357695956,0.609838322408726,-9.812234434835654,-0.0004319604898794893,0.0010081418821482504,0.8501963235351795,-0.027475214173759522,3.776350063969233e-05,-0.00013268776861049156
2024-05-10 21:05:06.225,0.01845577242981175,0.3624899868276069,-9.768844956335526,-0.0009559504584539716,0.00015898793764062533,0.8501897958484403,-0.03991194766418172,-6.199024095006922e-05,-0.0005403436011464762
2024-05-10 21:05:06.285,0.014546913044161568,0.6703800159721814,-9.777704068773513,-0.000994054667096549,9.590760514991433e-05,0.850183424604631,-0.0029472159518771717,-3.236314880236489e-05,-0.00048483883738322555
2024-05-10 21:05:06.345,0.016174337434050723,0.9863874697538456,-9.828021562444885,-0.0006029680741953644,0.0007198453392042321,0.8501818702725824,0.029454632464090965,-0.0001600613742153478,-9.53967346259696e-05
2024-05-10 21:05:06.407,0.02213017141391349,0.8824129926477907,-9.848055334528143,-0.0003344733387086768,0.0011539534145100434,0.8501789276450933,0.020417393249111904,1.1192192277762563e-05,-0.00018722807137461098
2024-05-10 21:05:06.464,0.016903836892392086,0.5354703746303087,-9.804065711789438,-0.00047131444047789284,0.0009363107882725552,0.8501786447103277,-0.010283215996509588,7.006681816801882e-05,-4.183722520045164e-05
2024-05-10 21:05:06.519,0.01807470326281573,0.3382293317702637,-9.80031695234015,-0.000754524066843378,0.00048244747384785516,0.8501776362229925,-0.021398841543600524,7.291548395697073e-05,-0.00010532726054098576
2024-05-10 21:05:06.578,0.01894344637612217,0.4451411972267544,-9.790932201466019,-0.0008377339437292326,0.00034920870200521697,0.8501739244555442,-0.006283196913559297,2.3785985727588398e-05,-0.0002869194377452792
2024-05-10 21:05:06.639,0.018754122773393368,0.6169222089573436,-9.810146502854794,-0.0006576721361633954,0.0006390438199399074,0.8501634953758616,0.013649229746901406,-1.9564608316659745e-05,-0.0007795293580033701
2024-05-10 21:05:06.696,0.011424471088838274,0.6049805266279664,-9.839236548355721,-0.0005265251698852378,0.0008375683363342313,0.850161697234327,0.009513299465734718,-0.000278838334461436,-0.00012351321430514645
2024-05-10 21:05:06.759,0.023898363771815503,0.4255006906338639,-9.817861299299704,-0.0005635991861434995,0.0007766783470201985,0.8501607434406667,-0.0028513975302434085,-2.1665263877473017e-05,-7.685497485146974e-05
2024-05-10 21:05:06.816,0.016632262696836472,0.30829085144416113,-9.794138651805865,-0.0006687772190613688,0.0006075092261061686,0.8501602656329331,-0.007967946805659772,1.3869467151071128e-05,-4.675368560107327e-05
2024-05-10 21:05:06.878,0.016859320039237784,0.3234930248308049,-9.80317434299561,-0.0006750207890336593,0.0006021932209928336,0.8501593499186054,-0.0003122117057216526,0.00010035055451432953,-6.97965903320686e-05
2024-05-10 21:05:06.941,0.017864969428974142,0.36824743726233083,-9.817926678141337,-0.0006503630646376436,0.0006463378883359315,0.8501532957327955,0.002020926348428581,9.11159194969506e-05,-0.0004574251381221588
2024-05-10 21:05:07.001,0.017341767119745378,0.3634644412326752,-9.813308715374447,-0.0005991794723936648,0.0007234961464584176,0.8501486373613053,0.003702164959549439,-0.00011560129315340463,-0.00034919737117230197
2024-05-10 21:05:07.059,0.01932444155572772,0.3167738812924661,-9.804289136064476,-0.000597083961188926,0.000721793646060827,0.8501459646125925,-1.3579809830252487e-05,-0.00010717824941773951,-0.00020318124903967365
2024-05-10 21:05:07.114,0.015854322040944575,0.25920944323210826,-9.801118355377543,-0.0006848611315803813,0.0005766041895286847,0.8501415722168635,-0.006785741588914146,-7.306620000972235e-05,-0.0003421414459968484
2024-05-10 21:05:07.172,0.0182530665795201,0.2542420926351596,-9.811186138195458,-0.0006627664349767523,0.0006091669550911607,0.8501399050526413,0.0015727917072475464,-6.552450998489014e-05,-0.00012495732500208615
2024-05-10 21:05:07.229,0.01700088233714807,0.27715507888010793,-9.827030542140307,-0.0006084796648619192,0.0007030517564637684,0.8501390471275516,0.004336066319617231,0.00013135441262854405,-5.96252360079313e-05
2024-05-10 21:05:07.293,0.01846724349940512,0.24411958879781975,-9.812826197171457,-0.0006077904576050607,0.0007079355793565996,0.8501381728224626,0.0001806523652817881,7.940909729125352e-05,-6.608320909273421e-05
2024-05-10 21:05:07.357,0.017338486254188767,0.2184346752914894,-9.777150490661455,-0.00060514550218124,0.0007127151280379852,0.8501295313119261,0.00021882403986374713,1.0536964688452839e-05,-0.0006561356834698137
2024-05-10 21:05:07.416,0.020975319516387494,0.20172602295593622,-9.814136567971703,-0.0005903839848366545,0.0007271952660275054,0.8501197383788602,0.0008039783924411706,-0.00019720272604672746,-0.000743009151898199
2024-05-10 21:05:07.472,0.014109304732442679,0.16843733028829672,-9.824179857007067,-0.0006145145774304287,0.0006773360106874674,0.8501186412654493,-0.0022036551230025553,-0.00022967886883769583,-8.655152231575299e-05
2024-05-10 21:05:07.536,0.01902953763983662,0.14351074760751972,-9.811726025866319,-0.000651340989797068,0.0006141849410434088,0.8501173420653406,-0.0029230461149002593,-7.79354281275527e-05,-0.00010237143176474798
2024-05-10 21:05:07.600,0.01737796327911678,0.15571755999899883,-9.818572084654889,-0.0006562471638117815,0.0006097443632562494,0.8501124107685414,-0.0002540134521001219,7.32332422012804e-05,-0.00037478256945767317
2024-05-10 21:05:07.664,0.015792943918522085,0.1709203256485643,-9.816872141640186,-0.0006474014933435977,0.0006277524479592539,0.8501102469963191,0.0007988257502787813,7.849867796553729e-05,-0.0001633230287138282
2024-05-10 21:05:07.727,0.018321778855500653,0.16124506180780182,-9.802072960971183,-0.0006555244884872409,0.0006168336201522866,0.8501089939278467,-0.0005423083268156953,4.620461000053544e-05,-9.576396815392713e-05
2024-05-10 21:05:07.796,0.019009266731936855,0.15829898669198314,-9.797482844747952,-0.0006031617896157863,0.0006955862476502967,0.8501053979497721,0.0037811523448058426,-0.00012176922622205578,-0.0002685644922495859
2024-05-10 21:05:07.861,0.019536662266288977,0.13869652535205446,-9.810376725784305,-0.000559471576215615,0.0007601716013092758,0.8501031237479071,0.003116635884033694,-0.0001252544024464062,-0.00016856231475538569
2024-05-10 21:05:07.919,0.01625393570171078,0.08654473083905757,-9.815989899807159,-0.0006494951026981241,0.0006116293864052311,0.8501013607008843,-0.0069472400423574495,-6.783850255372281e-05,-0.00014305318932053554
2024-05-10 21:05:07.975,0.019755761712326694,0.0747819250087457,-9.812552481479779,-0.0007027686237470751,0.0005295351596155362,0.8500980858791554,-0.003913510588360799,8.220266213276643e-05,-0.0002528688594229133
2024-05-10 21:05:08.037,0.015972796305356213,0.12354215573226106,-9.814933966322213,-0.0006543678333505091,0.0006105192969684872,0.8500974924628227,0.0037733772977779083,6.010278099136644e-05,-4.0917087237751096e-05
2024-05-10 21:05:08.103,0.019648290002703746,0.14096604921923156,-9.81028703942463,-0.0005702805933566582,0.0007463173595579284,0.8500961005607361,0.00638905082297623,1.2577290657351436e-06,-9.749042588391328e-05
2024-05-10 21:05:08.164,0.019008689703050724,0.09183263646639934,-9.80059402079294,-0.0005574972027727023,0.000765469006284794,0.8500946468156932,0.0009206091559044976,-3.1292630207057754e-05,-0.00010913053060684189
2024-05-10 21:05:08.225,0.018265860622781196,0.03853220865739235,-9.802219271740707,-0.0005915277760492418,0.000703003382808595,0.8500910724359725,-0.002840689147289715,-0.00015875915319345677,-0.0002756347581512475
2024-05-10 21:05:08.285,0.018774168660945924,0.051183551228850974,-9.794388432508512,-0.0005895160482678749,0.0006990544905970725,0.8500898976571292,-9.182113541940482e-05,-0.0001516165861194183,-8.952151351930565e-05
2024-05-10 21:05:08.347,0.017014034221082584,0.06140604472705557,-9.826192351862964,-0.0005966797979913154,0.0006869026114242404,0.850087715167747,-0.0005639711259094821,-1.2436742481795055e-05,-0.00016652381572586437
2024-05-10 21:05:08.405,0.01621893125319051,0.0566575587446238,-9.83891310004092,-0.000600643521613097,0.000683061853181923,0.8500870799055777,-0.00021405552093718369,5.3859814358293914e-05,-4.84670253187259e-05
2024-05-10 21:05:08.461,0.01774305289781005,0.05381369354803034,-9.813624806241258,-0.0006447267034533373,0.0006232150137999282,0.850086304362353,-0.0029635899171379836,0.0002382573217673297,-6.228084846401928e-05
2024-05-10 21:05:08.518,0.016638165499069553,0.0668836209179697,-9.782860801624228,-0.0006534998295016892,0.0006105900671501363,0.8500813251986507,-0.0006137720593995144,3.2296931081338884e-05,-0.00037885736095011867
2024-05-10 21:05:08.577,0.018722965635071743,0.0934633512942764,-9.79330316236386,-0.0005931034806070423,0.0007048323895346621,0.8500713284668981,0.00447752011717665,-6.857701871310565e-05,-0.0007537385862384101
2024-05-10 21:05:08.635,0.016298783656395536,0.06637535983246673,-9.813995379476097,-0.000594649487492383,0.0006879195843966693,0.8500659803163276,-0.0006072998805397086,-0.000303838738957549,-0.0004073354444445543
2024-05-10 21:05:08.698,0.020323439739261113,0.015086277027998467,-9.82485161994823,-0.000662077252820289,0.0005729832053961781,0.8500649776293869,-0.005328574941201844,-0.00012865590689047383,-8.270120473616028e-05
2024-05-10 21:05:08.757,0.013348997302147803,0.03283528738867058,-9.827616995937689,-0.0006729103637567433,0.0005593821416960633,0.8500615970501547,-0.0006904710449871547,8.178807370131495e-05,-0.0002573836351190359
2024-05-10 21:05:08.816,0.012582632523739994,0.06626303578694134,-9.810929465706085,-0.0006219279350308357,0.0006480403587604427,0.8500604483539994,0.004088734899976637,0.0001342431507093321,-8.240194416101071e-05
2024-05-10 21:05:08.870,0.019936753695968014,0.06814275388143216,-9.795499407155003,-0.0005753114704691997,0.0007303505990159387,0.8500595519144292,0.003780891832496312,0.00014896843907437723,-6.297890082907275e-05
2024-05-10 21:05:08.927,0.01770607068494261,0.025058723000559665,-9.80005357432856,-0.0005601347129074416,0.000751469369662157,0.8500507843547821,0.0010384040731380325,-7.135616191091593e-05,-0.0006644718225060208
2024-05-10 21:05:08.986,0.016476928899018153,-0.013607796326456487,-9.81538696160099,-0.0006188732855248897,0.0006469936448620528,0.8500456690255183,-0.004789552547830841,-0.00020395179695613055,-0.00039508959700971694
2024-05-10 21:05:09.043,0.01552847806036949,-0.0076590537901334525,-9.813117421726707,-0.0006672144475203647,0.0005613565898469528,0.8500444383731532,-0.003930202237079812,-0.00016055415391862324,-9.817975325791993e-05
2024-05-10 21:05:09.098,0.02116226495685112,0.03764191909266485,-9.805875550862725,-0.0006502140713157626,0.0005890019600130849,0.8500412629144308,0.0012983704887666414,4.363083660454588e-06,-0.00023972978356630493
2024-05-10 21:05:09.155,0.013992657790593003,0.06095156019625003,-9.814051538224678,-0.0006280373612515931,0.0006333291359778202,0.8500403532578216,0.0019744889837377847,0.00017985381439473194,-6.658093481192946e-05
2024-05-10 21:05:09.211,0.016260612711271973,0.0537412666684905,-9.810770116421136,-0.0005848445428876621,0.0007077642306261041,0.8500388890527009,0.0034410243069319334,9.959197569915171e-05,-0.00010670786066410149
2024-05-10 21:05:09.272,0.018488824693522126,0.04344884144386715,-9.798012301606473,-0.0005619284002716749,0.00074385482232043,0.850037074202144,0.0017100703422376804,-1.884584316812336e-05,-0.00013548590527663392
2024-05-10 21:05:09.329,0.017612722904407893,0.009283552699503837,-9.819708950067724,-0.0005577151210735753,0.0007455349608091109,0.8500329985290568,0.0001461646009476355,-0.00010796439021522394,-0.00030941801960194555
2024-05-10 21:05:09.387,0.016514769720318023,-0.008948768511490483,-9.813020471051294,-0.0006325636032797992,0.0006142035101200132,0.8500307167067717,-0.006042285109267635,-0.00022212818649060658,-0.00018136550404334868
2024-05-10 21:05:09.446,0.019865511296796774,-0.01157409509624309,-9.788103774941254,-0.0006858781286268223,0.0005249195035164061,0.8500270626889251,-0.004158826164920114,-6.84155562413694e-05,-0.00028207389046320196
2024-05-10 21:05:09.505,0.013561673214785677,0.03930279976652908,-9.825162122879858,-0.0006411746302445586,0.0006029158979356721,0.8500260920381972,0.003593906477256056,0.0001233682690974189,-6.971827151148109e-05
2024-05-10 21:05:09.563,0.017751766356861255,0.06264159579005109,-9.84003636814481,-0.0005703364012101546,0.0007239953247718862,0.8500248856236287,0.005609437125146804,0.0001424945070106598,-8.440427155512198e-05
2024-05-10 21:05:09.621,0.017504844923520956,0.02167788454052621,-9.80505719775528,-0.0005606208386160645,0.0007411949851556607,0.8500233287181653,0.0007896114528366572,3.201318951571232e-05,-0.00011709692378131248
2024-05-10 21:05:09.682,0.016976652171625865,-0.020183285274422914,-9.77936498937419,-0.000595256700226339,0.0006804019372927842,0.8500215611329325,-0.002796672959420719,-0.00010328043460767896,-0.00013812126590972892
2024-05-10 21:05:09.739,0.018142315527744098,-0.02257978035985939,-9.80026442574944,-0.0006327275324056409,0.0006124228371933344,0.8500203674681343,-0.0031007752291862174,-0.00015828894535208955,-9.464605020840345e-05
2024-05-10 21:05:09.795,0.01953472872611958,0.015737511674273435,-9.825652277927599,-0.0006363764696326862,0.0006021485008048426,0.8500158579521431,-0.00042592474309089844,-9.247371507557847e-05,-0.0003430423572500442
2024-05-10 21:05:09.856,0.015598200148269457,0.03307123563253098,-9.824863075215355,-0.0005894583761607624,0.0006805734050477283,0.8500139429175957,0.003655196628457587,5.7150202028598894e-05,-0.000140908749870526
2024-05-10 21:05:09.922,0.016975115625874934,0.0232474659114126,-9.812798816289064,-0.000575643000631424,0.0007098726531669779,0.8500129701691672,0.0012873491507069828,0.0001475942479653041,-7.200897633854787e-05
2024-05-10 21:05:09.980,0.015541916139535688,-0.008887198633487912,-9.800147917300887,-0.0006410386949713767,0.0006065927953444475,0.8500107045917932,-0.004889334772531733,4.730423584640487e-05,-0.00017808699140871244
2024-05-10 21:05:10.039,0.020156142429519255,0.009836251489388452,-9.794748854327768,-0.0006518811100172469,0.0005852878194906486,0.8500084427920725,-0.0009526859573142256,-8.02882965537615e-05,-0.00017292793819094027
2024-05-10 21:05:10.100,0.017789915212633303,0.070287789121076,-9.791674372390478,-0.000558607306960484,0.0007307529798824172,0.8500004817115313,0.006911729868140595,-0.00010647758107887041,-0.0005959850416154309
2024-05-10 21:05:10.158,0.013415399643594509,0.05314034522125313,-9.832582900801928,-0.0005275625794231061,0.0007751509633496166,0.8499971126734468,0.0021639018148869394,-0.00012009695835028546,-0.0002528437648408602
2024-05-10 21:05:10.220,0.019224081508847638,-0.013090884491559016,-9.833800511878145,-0.0005755126738812554,0.0006971359570933828,0.8499957710806708,-0.0036627912448315494,-1.3623281555104692e-05,-0.000107003704571662
2024-05-10 21:05:10.280,0.020393034251350566,-0.03180385975981628,-9.805618319579834,-0.0006295182097697914,0.0006125569622680491,0.8499945789448214,-0.004013573190685347,5.395078709710216e-05,-9.544293374302666e-05
2024-05-10 21:05:10.338,0.016517008009410142,0.002411964555028647,-9.792759363138371,-0.0006518140422875423,0.000584349035110155,0.8499927504655654,-0.0014287531074286164,0.00016364516283977237,-0.00014025700657469817
2024-05-10 21:05:10.402,0.01886374376668741,0.029174159841576217,-9.790222161168856,-0.0006149076468948812,0.0006426461609094042,0.8499916351243608,0.0027598398988915225,-2.6402554090522643e-05,-8.150473944333418e-05
2024-05-10 21:05:10.462,0.018803554456101823,0.04435558031088856,-9.831426198219194,-0.0005572177934785099,0.0007300004972319392,0.8499886506902279,0.004185841538174524,-0.00012079335193963399,-0.0002212777666778492
2024-05-10 21:05:10.520,0.01594868760284566,0.009356845849968598,-9.831120351900218,-0.0005462617174875812,0.0007395037185734894,0.8499866894803847,0.000554098851092193,-0.0001723003438856102,-0.00014831968539948503
2024-05-10 21:05:10.580,0.021203652714948878,-0.030487766078119333,-9.795737266929262,-0.0006059315449057286,0.0006415546356978786,0.8499789789891525,-0.004587086541530262,-3.538743507645181e-05,-0.0005915035000509157
2024-05-10 21:05:10.638,0.012774507042981116,-0.027517492310768357,-9.792098217274054,-0.0006483439822611798,0.0005711988025644132,0.8499749318426586,-0.0032855184245832525,-4.0640260819909775e-05,-0.00031112267773387243
2024-05-10 21:05:10.696,0.021437823676927655,0.017306089008531495,-9.823380596011495,-0.000632341978670995,0.0005966276190242413,0.8499729407457216,0.0012018913811521594,-8.219309035106316e-06,-0.0001498549861419256
2024-05-10 21:05:10.753,0.01745223922382525,0.046257654989167556,-9.827184769151339,-0.0005965214008250467,0.00065717843792944,0.8499676279677267,0.0028138536544595983,5.803046388668788e-05,-0.00039996512061219537
2024-05-10 21:05:10.811,0.01853510697244253,0.03461149306597748,-9.79938833064511,-0.0005860589612591161,0.0006757080748607825,0.8499638681809006,0.000850706025863046,3.46969580884854e-05,-0.0002843466553122254
2024-05-10 21:05:10.869,0.02156263569660306,0.018097839761010995,-9.79083813789045,-0.0005829632916311095,0.0006769412002118181,0.8499633998260687,0.00010719175616733317,-7.927148042388934e-05,-3.5509639458536796e-05
2024-05-10 21:05:10.927,0.018509907916576203,-0.0010117285202463698,-9.808657876922235,-0.000602202490509121,0.000639013946626198,0.8499627120921714,-0.00169486613721775,-0.00014517306026210118,-5.450179249546469e-05
2024-05-10 21:05:10.986,0.017152477392850432,-0.0027175563973999804,-9.819804224362583,-0.0005932208435985,0.0006487593366847128,0.8499603680344743,0.0005207556456388444,-0.00010003378550353596,-0.00017744551039803382
2024-05-10 21:05:11.041,0.01832310783751747,0.02715556318601363,-9.798416961245923,-0.0005894397347209218,0.0006585606440368661,0.8499594426545073,0.0004129707671993751,7.798213793385004e-05,-6.96589178707271e-05
2024-05-10 21:05:11.105,0.017269339181496916,0.0033927952452492364,-9.817122108607341,-0.0006085019978445381,0.0006278157667292806,0.8499580015972978,-0.0014468989394912579,1.4803428073608052e-07,-0.00011117583470160705
2024-05-10 21:05:11.169,0.02164865133583665,0.014652070180827911,-9.835923182189388,-0.0006306134504398853,0.0005922392330060551,0.849956796704642,-0.0016754409427956012,1.9968081813619783e-06,-9.341639339521358e-05
2024-05-10 21:05:11.230,0.01697990696310748,0.030038322967155747,-9.807438310068703,-0.0005997568330486241,0.0006385222036460545,0.8499523346805226,0.0022241016563129203,-7.377747297693939e-05,-0.00033625080450596826
2024-05-10 21:05:11.288,0.023689998556904825,0.04108724129242538,-9.785742499797728,-0.0005783383099067771,0.0006650723857178546,0.8499497610033648,0.001354201428694367,-0.00016871163929861352,-0.00019390465365183492
2024-05-10 21:05:11.347,0.016669438427429892,0.01171835373317726,-9.801921993589009,-0.0006103925085150649,0.0006108991479689466,0.8499487786450278,-0.002517244703029921,-5.1911985226168035e-05,-7.769157329106388e-05
2024-05-10 21:05:11.404,0.016891859555439193,0.004060856736419571,-9.83219090714889,-0.0006131958673170251,0.0006074309801507549,0.8499478138771062,-0.0001769285885246833,2.220408895939012e-05,-7.342455933715817e-05
2024-05-10 21:05:11.465,0.019118868659949113,0.016775020525475456,-9.830491522927705,-0.000585718127807283,0.000657469087408066,0.8499456139879921,0.0022804151439088354,0.00012030873884956673,-0.0001641489230563947
2024-05-10 21:05:11.521,0.018992410840055835,0.015874208403134017,-9.795884415889061,-0.0005646851660330124,0.0006928891859592106,0.8499438098231369,0.0016475867210683894,3.135688369194153e-05,-0.0001348276899796116
2024-05-10 21:05:11.576,0.017036464284933744,0.0006172614780113113,-9.78405857553055,-0.0005491078039289515,0.0007134452643259778,0.8499419904883045,0.001027268002756938,-9.64213929897541e-05,-0.00013685138288929087
2024-05-10 21:05:11.635,0.021645579790475714,-0.01582963870834005,-9.810558240545475,-0.0005811732573490746,0.0006566457801910117,0.8499400474641597,-0.002606705992097258,-0.00010693732977268389,-0.00015102343667298536
2024-05-10 21:05:11.697,0.018148910637311284,-0.018706149533582034,-9.825194253507156,-0.0006221104745998574,0.000586912067332299,0.849936411538971,-0.003233304765495001,-7.792889501941378e-05,-0.00027994452006288963
2024-05-10 21:05:11.757,0.016987580176274254,0.005939090205935784,-9.814303833498158,-0.0006159823943300114,0.0005955622137176793,0.8499318531629848,0.0004235243231926584,-2.609678648278539e-05,-0.00034561529897276675
2024-05-10 21:05:11.817,0.018557476908749166,0.029927939692282305,-9.809241536752024,-0.0005890336369832437,0.0006418936480002004,0.8499312500494816,0.0021431436115382776,6.0272002005380896e-05,-4.3204082460117776e-05
2024-05-10 21:05:11.876,0.01732570099891981,0.0226000318202054,-9.80473160739866,-0.0005968101755186969,0.0006320700507490855,0.8499301095872746,-0.0004977985784061154,5.7322224970984724e-05,-8.711663283403523e-05
2024-05-10 21:05:11.934,0.019326375547802276,0.01849415087614167,-9.772175458836417,-0.000562965926370722,0.0006832332104294324,0.8499267953789703,0.0024529089858130156,-7.237651287654012e-05,-0.00024861538250973167
2024-05-10 21:05:11.992,0.019746337551411912,0.012200107449063205,-9.835082477341214,-0.0005412791336104792,0.0007135905868297887,0.8499243906035041,0.0014892850272221281,-9.753343800971808e-05,-0.00018068411479694137
2024-05-10 21:05:12.049,0.02132568853202178,-0.010406489906501039,-9.849026238266065,-0.0005958806880718373,0.0006203130051395159,0.8499214873650487,-0.004321761652869653,-0.00010969325990537985,-0.00022599953278208245
2024-05-10 21:05:12.105,0.01715740414531113,-0.02359935245299077,-9.799011890078331,-0.0006543174812491214,0.000524278764325133,0.8499203878273439,-0.0044964263660007935,-3.739217049300321e-05,-8.840300767209068e-05
2024-05-10 21:05:12.162,0.01898370702449018,0.027836613238615162,-9.782850463944138,-0.0006151572365960623,0.0005903430759168008,0.8499191492783186,0.0030714117210207796,6.105948698521105e-05,-9.070582821393855e-05
2024-05-10 21:05:12.221,0.017284147756847838,0.052781220386853914,-9.817655570152743,-0.0005377177303895039,0.0007122345473816707,0.8499170190453351,0.005776202379730848,-6.369698964268317e-05,-0.00015463469004304003
2024-05-10 21:05:12.279,0.01964637665828957,0.014360422278551875,-9.830072148392276,-0.000516817031416977,0.0007470996022302845,0.8499157186042176,0.0016258941193799269,2.4248615944389005e-05,-9.644598802265778e-05
2024-05-10 21:05:12.335,0.019834919648147802,-0.03141024877516535,-9.80493826786815,-0.0005439427827040556,0.0007019044358635828,0.8499141230317291,-0.002108103509028132,-3.0419972287236713e-05,-0.00012405547156369253
2024-05-10 21:05:12.393,0.019758662349430432,-0.04018848874347565,-9.788402915738011,-0.0006051827515798364,0.000597175239694695,0.8499131019106171,-0.004851111087782689,-0.000125425397258407,-8.364800782270797e-05
2024-05-10 21:05:12.450,0.02153387690706478,-0.004839071695900492,-9.801839757809576,-0.000620558898051754,0.0005708337199319624,0.849911625516116,-0.0012195083279301216,-3.247967494720805e-05,-0.00011346698477332162
2024-05-10 21:05:12.507,0.017730799765128463,0.026534972825390996,-9.827367122102785,-0.0005844403675889751,0.0006316044103966466,0.8499099318273678,0.0028273642748589435,5.293192417676292e-05,-0.00012528849860357066
2024-05-10 21:05:12.565,0.016819942922298013,0.02834980306894057,-9.831149688559925,-0.0005683582943824228,0.0006575994966114562,0.8499080345145237,0.0012228217550640924,1.1313031768073886e-06,-0.00014253091213327877
2024-05-10 21:05:12.624,0.020637576037391435,0.006569618375950313,-9.804551023960018,-0.0005705748309240687,0.0006476194297374601,0.8499071233946983,-0.0003859466075193575,-0.00013501544128747883,-6.978946711204696e-05
2024-05-10 21:05:12.681,0.021824797713836018,-0.0012933205038804135,-9.783020057776922,-0.000562925008871791,0.0006569699820300298,0.849906383021887,0.0004791676941877911,-6.299600841336303e-05,-5.567632258279524e-05
2024-05-10 21:05:12.737,0.019788148746064254,0.0060249311852467085,-9.801758546484926,-0.0005767252356391007,0.0006340257889628273,0.8499049036976114,-0.0010707955870394054,-1.447276825673524e-05,-0.00011362447079866738
2024-05-10 21:05:12.792,0.01944120609523675,0.0007604372833947522,-9.796913992946397,-0.0005842931687571716,0.0006209090478461714,0.8499040180612845,-0.0006053762305457245,-1.920102489602889e-05,-6.797144002364331e-05
2024-05-10 21:05:12.850,0.019964052288989783,0.013354853492779631,-9.832155703157243,-0.000577496381734536,0.0006336718984459764,0.8499030125312234,0.0005772097896642255,3.792630338306824e-05,-7.560169801962953e-05
2024-05-10 21:05:12.906,0.020313918283023605,0.007940311579955202,-9.854281877569504,-0.0005630236187118358,0.0006607584735190406,0.8499023421069404,0.0012259303474794242,7.888753755766179e-05,-4.930327437840468e-05
2024-05-10 21:05:12.963,0.017617213761658267,0.0016929108929520421,-9.809114690623385,-0.0005846358752234164,0.0006241463035648495,0.8499013660215051,-0.001700143182729211,-3.698061623584433e-05,-7.620925547721421e-05
2024-05-10 21:05:13.026,0.020051323917609498,0.0014607583568371006,-9.76854032073584,-0.0006149448825427704,0.000570554320667844,0.8498998797155565,-0.0024606649681193516,-9.922472347682909e-05,-0.00011573344687879083
2024-05-10 21:05:13.089,0.01991767852911758,0.027884707643010213,-9.793016780685766,-0.0005600620487392279,0.000653721441905921,0.8498985222083719,0.003984238930598,-0.00011284705823555203,-9.853360619930575e-05
2024-05-10 21:05:13.148,0.021943271675378826,0.0343969001993685,-9.83490515353143,-0.0005387049456947195,0.0006865933905309952,0.849894747965711,0.0015679085486399681,-3.327081265504614e-05,-0.0002845372593054389
2024-05-10 21:05:13.208,0.020256200461644936,-0.004961438517870041,-9.827583188929834,-0.0005953535052713904,0.0005981251210742728,0.8498925613301327,-0.004201453715510341,6.103906313356226e-05,-0.0001710326988566453
2024-05-10 21:05:13.266,0.016711335572169635,-0.015105822250110158,-9.800934139781035,-0.0006119422772255422,0.0005770363062295211,0.8498898367530322,-0.0010664201888335426,0.00011939760262705066,-0.00020786484227514133
2024-05-10 21:05:13.326,0.01821053294768092,0.01813103681627102,-9.801602829357847,-0.0005633271864709709,0.0006523951464313878,0.849889402020287,0.003586622631720761,-6.42632501341856e-05,-2.8881281228651647e-05
2024-05-10 21:05:13.389,0.02333551042859317,0.02076782205033056,-9.812390151962733,-0.0005255118220619852,0.0007089488489157567,0.8498871663145597,0.0027198021141135588,-9.354677204811866e-05,-0.00016628234262183535
2024-05-10 21:05:13.451,0.01827299588691045,-0.010101019663565556,-9.810480475114188,-0.0005317032187819327,0.0006937607927929997,0.8498852014205134,-0.0006467088628959805,-0.00010970932196860221,-0.00015012036626393588
2024-05-10 21:05:13.511,0.022651159626608058,-0.03147448260849762,-9.801585599891036,-0.0005845651496109845,0.0006055608874052939,0.8498836836585016,-0.004112556715217257,-6.209995097603597e-05,-0.00012034930126948219
2024-05-10 21:05:13.572,0.018978119114887438,-0.017798443771420418,-9.775544797486827,-0.0006092991878109628,0.0005689263528880679,0.849881378640438,-0.0017666238683096286,6.860205332804966e-05,-0.0001768513388243577
2024-05-10 21:05:13.631,0.018169879644889267,0.022753001905354932,-9.830221346261643,-0.0006242022602467889,0.0005501472062866916,0.8498785831240342,-0.0009523686318577074,0.00011075988170926841,-0.00021307217181848874
2024-05-10 21:05:13.689,0.02306376536172858,0.043329731567744695,-9.867896415979864,-0.0005751476343118036,0.0006298535285398544,0.8498782285872714,0.0037436772454616176,1.2514636824862225e-05,-2.2706464243043458e-05
2024-05-10 21:05:13.749,0.01933280401521064,0.03003844997808482,-9.813891071352694,-0.0005277227635818978,0.0007024183903262477,0.8498769443521313,0.003466606057290861,-8.263956836295595e-05,-9.317624535083419e-05
2024-05-10 21:05:13.807,0.022559726286854907,-0.0030292688432377547,-9.759174941370336,-0.0005216710482563002,0.0007067956319107331,0.8498716105511266,0.00027670039111574076,-0.00011359159913701932,-0.00040459663127519066
2024-05-10 21:05:13.862,0.018799733362086707,-0.02524652671265848,-9.787254967587065,-0.0005467590189462076,0.0006649568974743396,0.8498620175448492,-0.0019505514558819472,-2.9282443976984573e-05,-0.0007306960732585412
2024-05-10 21:05:13.919,0.016150864115877333,-0.027405574627456436,-9.838394260259246,-0.000612426607582908,0.000557497196895304,0.8498595571121897,-0.005037168279810924,-3.296339060986797e-05,-0.00019263036230593024
2024-05-10 21:05:13.980,0.02509857106520233,-0.001029032704886773,-9.832998177518224,-0.0006344523313429483,0.0005224980440736884,0.8498587055919623,-0.0016540315147387393,1.0949476832738914e-05,-6.631177212349175e-05
2024-05-10 21:05:14.035,0.021645968963240118,0.04475144485845753,-9.802321717219048,-0.0005706120549949195,0.0006324537394940501,0.8498581450291633,0.005083684276740188,0.00014769295715798362,-3.6826041597203725e-05
2024-05-10 21:05:14.099,0.021652004642642813,0.039864546698130575,-9.798081592002733,-0.0004960801685603603,0.0007563419995617581,0.8498568338318918,0.005782741935106425,7.79223090408922e-05,-9.183235444309446e-05
2024-05-10 21:05:14.156,0.021879179764602408,-0.015796466539127623,-9.809220861391848,-0.0005134959263862176,0.0007280372777927011,0.8498552060490485,-0.0013292297968376327,-4.685698126557359e-06,-0.00012542414805486664
2024-05-10 21:05:14.216,0.021771898571373065,-0.05181425503365276,-9.811466000615837,-0.0005811397460422488,0.0006146207953315345,0.8498537041774297,-0.005281382459892164,-9.141755717302882e-05,-0.00012082503102682069
2024-05-10 21:05:14.275,0.01998266948548923,-0.032634974100502506,-9.798028320353996,-0.0006429069092186016,0.0005096271909961413,0.8498534424180016,-0.004871247300156397,-0.00011362086602061317,-2.5208720059782108e-05
2024-05-10 21:05:14.334,0.023775136613373674,0.008285040836264695,-9.79663301293898,-0.0006376244190264045,0.000517204408948007,0.8498467290275191,0.0003693547539351658,-1.98930712341577e-05,-0.0005091963373375049
2024-05-10 21:05:14.394,0.016901809634482463,0.04975995170874401,-9.835530443478326,-0.000570455602402431,0.000627052078868575,0.8498428409474477,0.005150384157109294,3.2322638458528145e-05,-0.0002894682976860757
2024-05-10 21:05:14.452,0.022136184947121253,0.029353295501144655,-9.837532507521884,-0.0005411859856316634,0.0006769784113338906,0.8498409790225201,0.0023143412471160786,5.749497856001615e-05,-0.0001383921891801086
2024-05-10 21:05:14.510,0.02434895273236206,-0.019634767499695865,-9.79761211231517,-0.0005786866008761855,0.000617668038957609,0.8498386827522372,-0.002806602932004252,2.438946054503827e-05,-0.0001776961473705932
2024-05-10 21:05:14.569,0.021772730417925164,-0.004062370169637489,-9.760595394493672,-0.0005579870551773651,0.0006478541014512944,0.8498361059244481,0.0014626719156381163,-6.732757179301874e-05,-0.00019388228920217887
2024-05-10 21:05:14.628,0.023668413872602063,0.01505994978948291,-9.820111840194368,-0.0005382076530511603,0.0006758459696844726,0.8498356732695774,0.0013685528782873759,-8.225862816849401e-05,-3.120030904325363e-05
2024-05-10 21:05:14.686,0.019567844802248942,0.00412085435963718,-9.850167853423804,-0.0005498472447971015,0.0006524175223718799,0.8498349549014681,-0.0010417531102330287,-9.826100582032395e-05,-5.5936864716138653e-05
2024-05-10 21:05:14.750,0.021675465694006996,-0.01548072781727976,-9.813541546007041,-0.0005687419437222881,0.0006258823100915884,0.8498335052161494,-0.0013002689904777936,8.285576396158658e-05,-0.00011150894491292906
2024-05-10 21:05:14.815,0.019000815707569382,-0.006744842009090799,-9.787978325796411,-0.0005713049631189112,0.0006274730306301697,0.8498307925888194,2.0820218932646428e-07,0.00012061352178688495,-0.00020574071751959852
2024-05-10 21:05:14.876,0.01954780990821307,0.007015674767547717,-9.805474150852131,-0.0005574859931109866,0.0006428547494550403,0.849827983702684,0.0008143817263387821,-0.00014552473192964424,-0.00021234649519720977
2024-05-10 21:05:14.933,0.02462757702355649,0.011121951019201543,-9.820295310732853,-0.0005551242475458707,0.0006432385570261406,0.8498259735571833,6.296176464905104e-05,-7.2230332640436e-05,-0.00015255433839112984
2024-05-10 21:05:14.990,0.01962779483615854,0.0073264122351115,-9.810739289645381,-0.000558165839133507,0.0006350986725287914,0.8498243777531842,-0.00034072565615174167,-6.824614350168234e-05,-0.00012159479250683301
2024-05-10 21:05:15.048,0.024068489386124575,0.010292608214948658,-9.79948276674969,-0.0005727913485711542,0.0006105788323962127,0.849820234469578,-0.0011415916985190878,-1.984620890585406e-05,-0.00031581067184655384
2024-05-10 21:05:15.109,0.0194627176334316,0.011259036215968164,-9.802956506655756,-0.0006124434049345044,0.000547643833111052,0.8498118603315485,-0.002974802178352552,2.0942830297446276e-05,-0.0006387566684583541
2024-05-10 21:05:15.170,0.016268575723543018,0.022808184902592395,-9.819597377628586,-0.0005953982910199807,0.0005745627408487019,0.8498092918580827,0.0012745670105842118,-1.1896718093148588e-05,-0.00019357458250912428
2024-05-10 21:05:15.233,0.026418260513612735,0.028004215010931033,-9.812953136432347,-0.0005678292323330483,0.000620529051163883,0.8498082696307006,0.0021438207963691185,3.197987935926451e-05,-7.511114143654988e-05
2024-05-10 21:05:15.298,0.019894195951151696,-0.0002221083272166786,-9.815333224290988,-0.0005481969527987692,0.0006513073996257016,0.8498078527057642,0.001460173152302075,-1.843490040357618e-05,-2.9896850308239475e-05
2024-05-10 21:05:15.360,0.023431888577118164,-0.004832597139850302,-9.80827454456873,-0.0005414486229320193,0.0006594770019525161,0.8498068323427985,0.0004200457696362982,-5.716730371508368e-05,-7.69694782611717e-05
2024-05-10 21:05:15.419,0.019872023972041842,-0.01746782107853552,-9.801313001786392,-0.0005697124211427398,0.0006110780482841886,0.8498078742033762,-0.00224116023182925,-5.9663598278557556e-05,7.629730831995716e-05
2024-05-10 21:05:15.475,0.020782099377061644,-0.017232223717714396,-9.806042816389182,-0.0006096456333140453,0.000543855142560013,0.8498078770421597,-0.0031270006250396862,-5.9884063024954496e-05,-3.2820976331478374e-06
2024-05-10 21:05:15.535,0.02179635827060973,0.006044400592452096,-9.815216063916665,-0.0006107949210982258,0.0005423799592725926,0.8498066750172135,-7.430267701541935e-05,7.951982973938012e-06,-9.128655064470395e-05
2024-05-10 21:05:15.594,0.021361195271704617,0.03680644749949359,-9.822275302432441,-0.0005599931366959244,0.0006265156513110775,0.8498046537366257,0.003931178024789482,4.699332296784318e-05,-0.0001489835797447916
2024-05-10 21:05:15.651,0.019218282315109195,0.02355748103558118,-9.814980439316479,-0.0005124789078927204,0.0006998703358409896,0.8498029689197686,0.003495372440042817,-6.855089987061402e-05,-0.00012352183290212512
2024-05-10 21:05:15.710,0.02345071259270297,0.01134257104935893,-9.7795829188463,-0.0005276520711434786,0.0006742404069193352,0.8498001366070688,-0.0011909532791347602,-2.4677054968127764e-05,-0.0002165121187445772
2024-05-10 21:05:15.766,0.02140700208387054,-0.007181258683855,-9.809136762967357,-0.0005522351919886034,0.0006364546955816557,0.8497982345066329,-0.0018026102786737946,3.89125249739795e-05,-0.00014654251345668816
2024-05-10 21:05:15.824,0.018718830049172373,-0.0025557953599910825,-9.833869802274407,-0.0005920808519700862,0.000570617592794976,0.8497973928329644,-0.0030779958462216804,-3.370978342399634e-05,-6.743452423750245e-05
2024-05-10 21:05:15.882,0.023661732690734124,0.020796963020893056,-9.814769494763349,-0.0005904381007913235,0.0005746447304957934,0.8497959299894301,0.0001716156538416171,2.904976462720744e-05,-0.00011078969839828534
2024-05-10 21:05:15.942,0.019566715511153094,0.04091881836891262,-9.80011550727683,-0.000537192471305872,0.0006625578082865607,0.8497943039358218,0.004111080030373397,4.3648913498949525e-05,-0.00011852645631337796
2024-05-10 21:05:16.003,0.022676238032323586,0.026287364405260343,-9.811211097639271,-0.000491639656337819,0.0007384867334259062,0.8497918043632108,0.003541571209710575,5.243837081174404e-05,-0.0001849260245381454
2024-05-10 21:05:16.063,0.01906832803040346,-0.02248500225118118,-9.815449267078273,-0.005277320927464644,-0.006982803589324882,0.84975793954067,-0.3633686069190033,-0.00012287018294164078,-0.00041936113392690677
2024-05-10 21:05:16.122,0.01893260060684394,-0.4854888326425054,-9.71211297873616,-0.0036683793634154998,-0.004403684678219441,0.8497525013949436,0.12159728889075383,-0.00030031281124718586,-0.0017275773098433763
2024-05-10 21:05:16.177,0.014688531730740686,3.304390972181396,-9.818482957088733,-0.0006897748289875961,0.00039897118510970786,0.8497417925682318,0.22605602374554987,2.6415400852342368e-05,-0.0016711857736693534
2024-05-10 21:05:16.238,0.018769137813979386,2.150938925905726,-9.867968872872728,-0.0009027366166329764,5.330890754423397e-05,0.8497348965461909,-0.016239461852939178,-5.0573089558747623e-05,-0.0005302777862444899
2024-05-10 21:05:16.305,0.02154823425795713,-0.001345021819140657,-9.831721334329073,-0.0017100256682705125,-0.0012407787685707664,0.8497298730725685,-0.061009518752102074,0.00014970516639485664,-0.00031182957738101725
2024-05-10 21:05:16.368,0.028530691097342416,-0.12234600872998456,-9.740334752242013,-0.0011617020639427776,-0.00035649168171383026,0.8497285880942933,0.04161984221384295,1.1430281296322533e-05,-0.00016051819890219274
2024-05-10 21:05:16.429,0.014364750540894663,0.18664690419659752,-9.754661845520369,-0.0007542204704834245,0.0003001690146902089,0.8497279954498876,0.03091269085793494,-1.774943187098705e-06,-4.6616730208385405e-05
2024-05-10 21:05:16.486,0.02261400806583519,-0.17070480779249203,-9.846938585681965,-0.0019687807253347426,-0.001655075861216891,0.8497280714797444,-0.09207096153407651,4.779152320692874e-05,0.00012431019644516543
2024-05-10 21:05:16.546,0.019751949883788412,-0.1341158889735487,-9.845774525651242,-0.003790088240002945,-0.004594121421767414,0.8497186845891384,-0.13830626216158204,-7.614456491822501e-05,0.00010682586964915806
2024-05-10 21:05:16.601,0.016872187660616756,1.0827085594943384,-9.766282142996426,-0.003404546782612324,-0.003972795156480085,0.8497232235510269,0.02924933313634085,-2.019167402451397e-06,0.0001067206101237646
2024-05-10 21:05:16.662,0.018730941266581178,2.007587461371943,-9.771698435436358,-0.0015768557981966057,-0.0010241866238426135,0.8497286544035858,0.1387656458350239,5.996982013011259e-05,-0.0002454990106084473
2024-05-10 21:05:16.725,0.020220515546274142,1.1628476583350167,-9.848088862139237,-0.0004631039080218773,0.0007685982230342289,0.8497276902553612,0.08442306417003823,-4.79828634165046e-05,-9.360458299184591e-05
2024-05-10 21:05:16.783,0.01607957161491909,-0.5516168399411637,-9.855146331142203,-0.0008501522031857273,0.00014756619563733984,0.8497265366256366,-0.02927065639447189,5.862460539007842e-05,-0.00011284146805200138
2024-05-10 21:05:16.841,0.014229082859765528,-1.2531060275776242,-9.770308157163006,-0.0015136376186526386,-0.000919256369252214,0.8497245999419586,-0.05025246061718714,5.331080873686373e-05,-0.0001099714971354668
2024-05-10 21:05:16.898,0.016594229517416313,-0.8691270772130406,-9.721350021856976,-0.001202022727842704,-0.0004128776734715514,0.8497239257446891,0.02378305915078926,8.760875056679243e-05,-8.102316567675236e-05
2024-05-10 21:05:16.958,0.019708432747162812,-0.5175370433536459,-9.829892682540672,-0.0014811326130826736,-0.0008584112110068943,0.8497243106847405,-0.021029468356565634,9.069471329804202e-05,5.48374928929545e-05
2024-05-10 21:05:17.015,0.01570781499110587,-0.5351228734559691,-9.88320940728888,-0.0030487422293206156,-0.003385216041352383,0.8497185220627325,-0.11894360983868213,-6.330226964779287e-06,3.9466446728896284e-05
2024-05-10 21:05:17.071,0.017319730291541786,0.09006905174486186,-9.80290919547121,-0.00328864380422386,-0.0037703183060104617,0.8497206331547115,-0.018148972298846953,3.125936894714739e-05,0.00028353505577577995
2024-05-10 21:05:17.130,0.023742872472259688,1.0168362857227673,-9.757451529027868,-0.0023865142280814415,-0.00231627760094974,0.8497313130098274,0.06844670800373835,-2.5627321034266554e-07,0.00041518393563411073
2024-05-10 21:05:17.192,0.013095989030330265,0.9370857870286562,-9.808149002291636,-0.0022141394506913488,-0.002037048453267696,0.8497350093002404,0.013125822885004846,2.8901770044800683e-05,0.0002263688409398436
2024-05-10 21:05:17.254,0.02117834273484025,0.2325074520354345,-9.851789937874967,-0.002077872172252039,-0.0018139371869345495,0.8497335098695206,0.010457243952189684,7.374184418736568e-05,-0.0001516765931722147
2024-05-10 21:05:17.316,0.01566932394933722,-0.29493397505336183,-9.823510515504482,-0.0009516310232999838,3.2335520763209383e-06,0.8497341530791775,0.08551539781134328,4.08059627611462e-05,-9.802032287039402e-05
2024-05-10 21:05:17.374,0.015170474087187504,-0.8072857390655459,-9.788333159680485,-0.00037216397086701553,0.0009369403614023868,0.8497317877901612,0.04395629856873379,-5.379185678329465e-06,-0.00014026346839300267
2024-05-10 21:05:17.432,0.01716186352836197,-1.631734826864231,-9.790418204561501,-0.0011999345932533964,-0.0003940984480845593,0.8497290339815712,-0.0626974025938291,6.588804394409042e-05,-0.00024100904187846807
2024-05-10 21:05:17.492,0.016696911032359384,-1.6889328906446905,-9.803945105521754,-0.0015981459204747418,-0.0010369420750537548,0.84972643619449,-0.030247420827092898,-2.160563030815675e-05,-0.00015611693544036442
2024-05-10 21:05:17.551,0.015496273218307238,-1.0955348439772827,-9.815417881508997,-0.0009424779838669219,2.003461180870027e-05,0.8497255095990076,0.04975313793556624,4.933738548163343e-06,-0.00011827606438117856
2024-05-10 21:05:17.608,0.02059629907705937,-0.9253295281046946,-9.823510888033494,-0.0008067172645644191,0.00023902581993773652,0.8497201266538582,0.01030668970430125,4.018588170152752e-06,-0.00040585732970204727
2024-05-10 21:05:17.662,0.020238354175555463,-1.2468736608600646,-9.815958141708872,-0.0015390199531337425,-0.0009431168960068197,0.8497156376032523,-0.05562321402243658,-3.998801436131339e-05,-0.00030357749321325834
2024-05-10 21:05:17.721,0.016292725057727445,-1.124230096036815,-9.795808606235088,-0.002330327570564481,-0.0022162014315922655,0.8497136833376515,-0.059959012286277195,4.664669784418521e-05,3.162037056429642e-05
2024-05-10 21:05:17.778,0.013211224913954529,-0.46472521419690604,-9.791328758599454,-0.0026902353147587716,-0.002794776280051406,0.8497139130843273,-0.027255583507716938,3.0404324762812612e-05,0.0001471191263916592
2024-05-10 21:05:17.835,0.020234891820339735,0.1716446282771639,-9.817237220072096,-0.0024837721653904812,-0.0024628378961244553,0.8497160253181728,0.015636404531374645,-1.735011506403854e-05,8.220875524352857e-05
2024-05-10 21:05:17.891,0.01798385907096503,0.29400685802628307,-9.841463433658113,-0.002418618832192154,-0.0023583436306037382,0.8497178601227411,0.004925611773375833,-1.115921024456242e-05,0.00011663244817855685
2024-05-10 21:05:17.950,0.018898033716203907,0.1492315832424809,-9.820103272027087,-0.002778776167923805,-0.0029387364182911105,0.8497182078809485,-0.027322666705763343,6.976770198193094e-07,0.00016364550231563448
2024-05-10 21:05:18.005,0.01588529773508181,0.11394534417315148,-9.785484616589066,-0.0028630031603739657,-0.003074296054356415,0.8497195894885499,-0.006383972361038316,3.387959528825774e-06,0.00014124605537453418
2024-05-10 21:05:18.059,0.013936801380772964,0.21633813294279874,-9.79399513500393,-0.0026102236360824875,-0.0026673006772566085,0.8497224727388386,0.019164303058079032,-9.067625110070257e-06,0.00011435599232565261
2024-05-10 21:05:18.118,0.01716165016091507,0.10917214158197937,-9.826747326958818,-0.0025452210036469333,-0.002562951524398599,0.8497237722439142,0.00491753981097858,-9.042795244275748e-06,7.41582955414685e-05
2024-05-10 21:05:18.174,0.014853481911169874,-0.15511135416042146,-9.828199631312692,-0.0025730379698989067,-0.002605837294066069,0.8497211630576291,-0.0020441383570585555,4.173829588502037e-05,-0.00018773398210326833
2024-05-10 21:05:18.235,0.018413341457182156,-0.3750253814493357,-9.805146511585944,-0.0026209764408022924,-0.0026781261197625977,0.8497182203906015,-0.003467857559943461,0.00010564246508624903,-0.00020535104540711215
2024-05-10 21:05:18.291,0.01126542830359019,-0.6024453255467008,-9.794955328532753,-0.0011108480919779123,-0.00024395809732472698,0.8497233793080209,0.11458240444304617,6.7820208830818396e-06,7.387531480151223e-05
2024-05-10 21:05:18.348,0.017012681984424214,-1.0833367132580165,-9.835214538876022,0.0007681641601949264,0.002783879592150375,0.8497198084981626,0.1425398853063216,-1.084047214404993e-05,7.246676850626704e-05
2024-05-10 21:05:18.405,0.020014413034702822,-2.3420935955859967,-9.842104556088026,0.0007201154369382854,0.0027060250153716687,0.8497200701777139,-0.0036595164019144625,-8.759891435173998e-06,8.119469402158772e-07
2024-05-10 21:05:18.465,0.01553594137353775,-3.4556768124555073,-9.771693592559199,-0.0009287615229059833,4.938990331687117e-05,0.8497244304654697,-0.1250697871830519,1.7556118439231153e-05,4.044885113510104e-06
2024-05-10 21:05:18.519,0.015208015616532605,-2.9672890423501457,-9.719431031783127,-0.002008106753840633,-0.0016904921975483284,0.8497222888206695,-0.08189931602907431,-6.46493237116082e-06,-3.505103748344263e-05
2024-05-10 21:05:18.579,0.019174522820894456,-1.532439581906033,-9.77871744081882,-0.0012318066142800123,-0.0004393645563797282,0.8497241155463847,0.05889610707542164,-5.854292763970896e-07,1.9627951709709816e-05
2024-05-10 21:05:18.638,0.015646488752511477,-0.7684101334876224,-9.891729890854819,0.00017730706186756224,0.0018313714143018405,0.849722778819632,0.10689694886037557,-6.49453163626399e-06,3.971222041420061e-05
2024-05-10 21:05:18.700,0.01552384981116117,-1.450104011264346,-9.894284229158893,0.00045282209692039626,0.0022751839105674726,0.8497217126090737,0.020895137232659167,-4.86166620341038e-06,4.892925627067588e-07
2024-05-10 21:05:18.755,0.022517973251543814,-2.3413100215542957,-9.77103728957204,-0.0005397424858507345,0.0006756001167915457,0.8497241138567452,-0.07530056402283553,2.487243302261728e-06,-2.8536904607063247e-05
2024-05-10 21:05:18.813,0.010088514475808025,-2.219946192840807,-9.69947269682483,-0.0014198068776278292,-0.000743262482694196,0.8497237114857592,-0.06678545816280275,-9.940939923691962e-06,-2.6277046664747586e-05
2024-05-10 21:05:18.872,0.01963542888421158,-1.2685282542883036,-9.780235682807843,-0.0011749547882592918,-0.0003487393529416042,0.8497240603761934,0.0185731564151236,-2.1572268305728204e-06,7.231020009654967e-06
2024-05-10 21:05:18.931,0.014120268417703394,-0.6457808557340655,-9.894045531194356,-0.0002795271674534613,0.0010940917224083334,0.8497237268287499,0.0679241124470231,-6.654307356090348e-06,2.2709221459566843e-05
2024-05-10 21:05:18.985,0.014463229212808362,-0.912992967932819,-9.883245170074046,0.0001087021129341042,0.001719389184673192,0.8497228391453879,0.029440641556195638,-8.53112816529752e-06,1.1210715115576906e-05
2024-05-10 21:05:19.043,0.01562395235310279,-1.507364339776727,-9.773271997983688,-0.00038482439724908923,0.0009239019086350214,0.8497238595915586,-0.03744584154403706,-1.6547548244460755e-06,-1.645085839549486e-05
2024-05-10 21:05:19.103,0.01591686665847879,-1.5948470855716603,-9.724682293870675,-0.0010329150288967632,-0.00012092665570152643,0.8497241653993326,-0.04918029929649643,-6.518452483020251e-06,-1.4266792070082617e-05
2024-05-10 21:05:19.160,0.015351925956802931,-1.0532067064535413,-9.794078581502655,-0.0010466894242041405,-0.00014336409882628214,0.849724214249607,-0.001053118914399192,-5.009766112601713e-06,3.960152745132656e-06
